Accel_X,Accel_Y,Accel_Z,Gyro_X,Gyro_Y,Gyro_Z
0.486572,0.01416,0.881958,0.549316,-0.12207,-0.061035
0.489624,0.012085,0.890381,0.488281,-0.244141,-0.183105
0.490112,0.01123,0.889526,0.366211,-0.061035,-0.061035
0.489624,0.011597,0.888916,0.305176,0.061035,-0.061035
0.489868,0.012207,0.888184,0.366211,0,-0.061035
0.48938,0.013306,0.889282,0.427246,-0.12207,-0.061035
0.489624,0.011841,0.888794,0.488281,-0.183105,-0.061035
0.488647,0.012573,0.888916,0.427246,-0.061035,-0.12207
0.487549,0.012939,0.889771,0.366211,0,-0.12207
0.488403,0.013062,0.88916,0.366211,0.061035,-0.061035
0.489136,0.01416,0.886719,0.488281,-0.061035,-0.061035
0.490112,0.012329,0.88855,0.488281,-0.183105,-0.12207
0.490356,0.01123,0.889771,0.488281,-0.183105,-0.12207
0.48938,0.011475,0.890015,0.427246,0,0
0.488647,0.013428,0.887085,0.366211,0.12207,0
0.489258,0.01416,0.887695,0.427246,0,-0.12207
0.489136,0.013184,0.890015,0.488281,-0.12207,-0.061035
0.487915,0.014648,0.890259,0.427246,-0.061035,-0.12207
0.489258,0.013428,0.88916,0.427246,-0.061035,-0.12207
0.48938,0.012451,0.88855,0.488281,-0.061035,-0.12207
0.489746,0.012207,0.889038,0.427246,-0.061035,-0.12207
0.490601,0.012939,0.88916,0.427246,-0.061035,-0.061035
0.490112,0.012207,0.888672,0.427246,-0.061035,-0.12207
0.487793,0.012329,0.890137,0.427246,-0.061035,-0.12207
0.488281,0.012695,0.889771,0.366211,-0.061035,-0.061035
0.489502,0.013306,0.889282,0.427246,-0.061035,-0.061035
0.490601,0.012451,0.888306,0.366211,-0.12207,-0.061035
0.489502,0.013306,0.889526,0.366211,-0.12207,-0.12207
0.48938,0.012451,0.891113,0.427246,-0.061035,-0.12207
0.489136,0.011108,0.889648,0.366211,0.061035,0
0.48877,0.012085,0.889404,0.366211,0.061035,0
0.486694,0.011597,0.891968,0.305176,-0.061035,-0.12207
0.488647,0.01355,0.888916,0.244141,0.061035,0
0.489746,0.012817,0.887695,0.305176,0,0
0.488525,0.01062,0.890869,0.305176,0.061035,-0.12207
0.489014,0.009644,0.892578,0.061035,0.244141,0
0.490356,0.011108,0.887695,-0.244141,0.366211,0.12207
0.489136,0.010986,0.889648,-0.061035,0.183105,0
0.487793,0.008301,0.894165,-0.12207,0.183105,0
0.491211,0.020386,0.882202,-0.427246,0.793457,0.366211
0.491699,0.022217,0.882324,0.061035,0.061035,-0.061035
0.490356,0.020508,0.881714,0.244141,-0.061035,-0.061035
0.488403,0.01709,0.887329,0.305176,-0.366211,-0.12207
0.489258,0.014526,0.889648,0.488281,0.183105,-0.12207
0.488159,0.013428,0.892944,0.12207,0.244141,0
0.487793,0.018311,0.884766,0.244141,0.244141,0.061035
0.488647,0.012939,0.891113,0.610352,-0.610352,-0.305176
0.491699,0.014282,0.888672,0.244141,0.183105,0.12207
0.493042,0.011841,0.887207,0.427246,-0.305176,-0.183105
0.491943,0.013428,0.887573,0.244141,0.305176,0.061035
0.490723,0.014404,0.887817,0.427246,-0.12207,-0.183105
0.488525,0.014526,0.890259,0.305176,0.12207,0
0.486572,0.015869,0.890381,0.427246,-0.183105,-0.183105
0.489136,0.01416,0.890503,0.305176,0.061035,-0.061035
0.49353,0.01355,0.886353,0.305176,-0.061035,-0.061035
0.495605,0.012817,0.88501,0.427246,0,-0.061035
0.493652,0.01123,0.888916,0.366211,-0.061035,-0.12207
0.490967,0.014648,0.890015,0.305176,0.12207,0
0.487305,0.015869,0.889771,0.366211,0.061035,-0.061035
0.486572,0.017334,0.889648,0.366211,0.12207,-0.061035
0.487183,0.016968,0.88916,0.427246,-0.244141,-0.12207
0.489258,0.015259,0.88916,0.488281,-0.061035,-0.12207
0.491211,0.011719,0.88855,0.427246,-0.244141,-0.061035
0.493286,0.01416,0.885498,0.183105,0.366211,0.12207
0.493408,0.014282,0.885254,0.366211,0.061035,-0.061035
0.48999,0.012329,0.890137,0.427246,-0.061035,-0.12207
0.488403,0.015625,0.887695,0.305176,0,0
0.489136,0.015015,0.890381,0.366211,-0.061035,-0.061035
0.488281,0.017212,0.891602,0.366211,-0.061035,-0.061035
0.493652,0.016235,0.802612,-4.211426,2.624511,-1.098633
0.483765,-0.010986,1.038696,2.685547,-13.671874,-1.220703
0.490234,-0.068359,0.86438,0.915527,12.939452,10.559081
0.481812,0.040161,1.018066,3.723144,12.878417,26.18408
0.481445,-0.027588,0.9823,-33.935547,44.860836,27.9541
0.446289,-0.013428,0.865967,-42.907711,62.255856,40.771481
0.466675,0.112671,0.866455,-30.151365,52.551266,49.499508
0.53894,0.156982,0.983032,-42.114254,49.682613,30.761717
0.518433,0.032104,1.185913,-87.646477,93.200676,25.268553
0.495972,0.223877,1.214355,-120.483391,211.364731,54.565426
0.622314,0.368652,0.922485,-148.31543,320.678711,104.431145
0.391113,0.567627,1.102295,-156.494141,357.665985,176.025375
0.490234,0.788696,1.020508,-138.549805,463.500946,178.771957
0.737183,0.926636,0.536621,-127.624504,556.396484,135.742187
0.687866,0.796509,0.068604,0.488281,594.787598,99.792473
0.582153,0.70874,-0.067749,47.790524,568.17627,109.924309
0.596313,0.605347,-0.382935,55.908199,410.156219,127.746574
0.388062,0.776001,0.112305,64.51416,202.575668,163.818344
0.140503,0.586182,-0.064453,132.69043,225.341782,72.875977
0.276123,0.281982,-0.871582,133.972168,320.007324,-39.733887
0.661377,0.327271,-1.413208,99.304192,239.624008,-65.612793
1.294556,0.865234,-1.734131,85.083,26.611326,-107.666008
1.516357,1.24646,-1.08313,100.097649,-218.017563,-212.097153
0.939209,0.63916,-0.715088,135.742187,-295.227051,-307.067871
0.897705,0.48291,-0.405273,171.081528,-350.952118,-242.12645
1.223877,0.652588,-0.166382,167.175278,-267.028809,-168.701157
1.295532,0.676514,-0.12561,158.203125,-178.161606,-136.474609
1.131714,0.490479,-0.235962,155.090332,-175.903305,-131.591797
0.901611,0.361694,-0.090576,114.19677,-143.310547,-138.916016
0.650146,0.140747,0.073975,50.048824,-76.721191,-144.897461
0.56604,-0.166992,0.0354,-21.057127,-45.349117,-118.34716
0.646362,-0.04834,0.329224,-75.622559,-46.56982,-105.895988
0.684204,0.037598,0.489746,-91.491692,39.0625,-126.403801
0.741455,0.058594,0.466675,-94.116203,132.385254,-142.39502
0.639771,-0.009521,0.474243,-108.764641,196.105942,-136.59668
0.613647,-0.121094,0.290161,-67.687988,191.101059,-107.360832
0.814941,-0.182251,-0.165527,6.958007,81.665031,-55.053707
0.887207,-0.335083,-0.567017,62.19482,-68.17627,-13.549804
1.097778,-0.335205,-1.182617,-38.696289,-283.447266,3.479004
0.654419,-0.692017,-0.783691,-155.029297,-476.68454,23.010252
-0.672974,-0.862061,-0.468872,-65.673828,-602.111816,101.684563
-1.040161,-0.578979,-0.07605,104.309074,-600.097656,179.199203
-0.340332,-0.05835,1,77.575684,-386.474579,154.47998
0.127075,0.266968,1.389404,-173.889145,-171.508774,159.179687
0.181763,0.774536,1.586426,-179.931625,-160.15625,117.492668
0.046021,1.031128,3.296509,-46.203609,-44.677731,58.898922
0.20874,1.183594,3.727173,79.956055,293.762207,41.015621
0.349365,1.473267,2.788818,149.230957,588.439941,-26.30615
-0.027832,1.114136,1.284546,136.413574,694.946228,-80.200195
-0.466553,-0.049805,-1.24646,78.430176,752.075134,-138.305664
0.72522,-1.40564,-3.750244,266.296387,329.528778,-26.916502
1.031494,-0.892212,-2.409668,253.295883,-405.700653,91.674797
0.133545,0.344482,0.010742,-29.296873,-817.321716,18.554687
-0.080933,0.586182,1.610718,-170.04393,-729.736267,-84.777824
-0.44751,0.288574,1.987671,-169.860825,-362.548798,-124.633781
-0.598389,0.312378,2.501587,-95.336906,-56.091305,-93.01757
0.008667,0.700562,2.487305,9.216309,218.505844,-39.733887
0.605103,0.762695,1.745605,119.018547,445.373505,-32.775879
0.361206,0.350342,0.827637,137.145996,569.030762,-67.993164
0.128662,-0.231079,-0.435425,87.280266,580.13916,-45.898434
0.86731,-0.517334,-1.432861,102.416985,366.394012,54.992672
1.645874,-0.846436,-2.359985,103.881828,37.536621,118.774406
1.260498,-0.33728,-1.349854,66.223145,-320.556641,132.873535
0.50293,0.180542,0.05188,-109.069817,-458.618134,34.667969
0.102051,0.424805,1.230591,-185.974106,-391.967743,-42.785641
-0.223145,0.469727,2.250244,-161.437973,-251.159653,-63.903805
-0.039063,0.760376,2.811157,-69.091797,-72.387695,-2.624511
0.734741,0.997681,2.338013,34.973145,131.774902,41.015621
0.866577,0.768799,1.504395,101.745598,224.426254,5.615234
0.512939,0.250854,0.548706,131.103516,260.864258,-20.568846
0.83374,-0.560059,-1.384399,114.135735,253.601059,-0.427246
1.306885,-1.008667,-2.281128,75.561523,30.2124,57.006832
1.138672,-0.505615,-1.428101,-22.888182,-215.515121,70.43457
0.776978,0.288208,0.071899,-134.399414,-324.218719,9.58252
0.213379,0.721558,1.47998,-186.950668,-306.762695,-77.697754
-0.14978,0.94043,2.874756,-131.652832,-224.73143,-112.609856
0.112549,1.064575,3.383667,13.610839,-1.953125,-80.322258
0.456299,0.824341,2.128784,138.48877,289.123535,-20.874022
0.423828,0.271606,0.226807,171.081528,427.001923,27.9541
0.542358,-0.193848,-0.898315,136.657715,325.378387,63.415524
1.102783,-1.009277,-2.5979,73.913574,10.498046,106.689445
1.200928,-0.722412,-2.165161,-83.496086,-254.821762,40.588375
0.847412,0.158325,-0.531494,-199.645981,-334.411591,-45.715328
0.269165,0.885864,1.406372,-203.674301,-329.589813,-132.751465
-0.539551,0.959595,3.377686,-56.823727,-210.082993,-112.060539
-0.068481,1.067261,3.888794,122.558586,156.066895,-14.160155
0.736694,0.914429,2.126465,170.898422,440.551727,29.052732
0.490601,0.401855,0.429321,151.550293,410.217255,8.544922
0.363159,-0.329834,-0.765991,148.803711,248.657211,75.744629
1.137573,-0.730591,-2.379517,115.112297,28.930662,102.416985
1.461548,-0.671875,-2.56958,-9.94873,-245.483383,32.592773
0.793579,-0.167725,-1.035889,-122.558586,-401.123016,-33.935547
0.025024,0.536621,0.998779,-171.325668,-422.546356,-80.688469
-0.544434,0.828613,3.220947,-89.538567,-291.381836,-64.025879
-0.043579,0.996094,3.776367,52.673336,39.978027,-10.437011
0.546875,0.721436,2.236206,93.872063,350.524872,-2.929687
0.258179,0.285767,0.99353,84.472649,381.835907,-10.986327
0.098022,-0.145874,0.070801,116.149895,301.086426,50.23193
1.047485,-0.522583,-1.786621,139.648437,130.859375,106.994621
1.684448,-0.650757,-2.420166,11.779784,-121.459953,86.85302
1.017578,-0.231934,-1.291748,-116.08886,-296.264648,8.361816
0.50415,0.512573,0.477539,-144.042969,-334.106415,-22.094725
-0.07605,0.923828,2.832275,-137.451172,-330.871552,-78.491211
-0.141602,1.108643,3.999878,-27.770994,-141.540527,-75.317383
0.555664,0.866455,2.660645,99.426262,221.374496,-26.06201
0.328125,0.23877,0.707642,120.910637,429.93161,-10.498046
0.153564,-0.394531,-0.592651,133.483887,322.631805,19.53125
1.057373,-0.646606,-1.806763,139.282227,140.74707,89.782707
1.394043,-0.62854,-2.267822,41.015621,-37.658691,103.820793
0.942627,-0.160278,-1.331177,-83.129875,-232.849106,37.597656
0.647705,0.517578,0.2323,-130.67627,-338.623016,-29.785154
-0.003052,0.883789,2.527344,-151.306152,-324.523895,-96.130363
-0.283325,1.01355,3.999878,-71.716309,-161.071762,-107.971184
0.563232,0.913208,2.879639,71.105957,111.877434,-63.415524
0.462769,0.399292,1.035522,143.798828,336.914032,-15.808105
0.026733,-0.295044,-0.072266,142.76123,355.895966,1.220703
0.761597,-0.616455,-1.727173,161.621078,227.844223,77.758789
1.613159,-0.583862,-2.444702,112.487785,-8.178711,120.605461
1.062744,-0.328491,-1.62854,-46.936031,-251.708969,42.41943
0.515991,0.115479,-0.444092,-151.123047,-378.295868,-30.395506
0.190186,0.814331,1.036255,-203.18602,-397.277802,-72.021484
-0.718994,0.971802,3.497437,-188.110336,-362.670868,-128.845215
-0.361938,1.152954,3.999878,-8.117676,-174.743637,-67.687988
0.548218,0.914795,2.654053,162.292465,196.960434,20.996092
0.015137,0.257813,0.93689,147.521973,449.096649,4.943848
-0.165894,-0.160767,0.548584,112.792961,405.212372,-21.850584
0.353516,-0.228882,-0.637939,119.689934,362.915009,24.230955
1.25354,-0.694824,-2.745239,106.811516,234.863266,57.373043
1.359985,-0.814331,-3.05542,20.629881,-137.573242,83.007805
0.533325,-0.18103,-1.387817,-91.918938,-462.524384,55.358883
0.18103,0.58667,0.121704,-164.428696,-523.681641,-3.784179
-0.482544,1.121704,2.148071,-218.200668,-507.751434,-92.346184
-0.74353,1.121704,3.22876,-122.558586,-424.743622,-118.10302
-0.492432,1.021362,3.999878,80.26123,-119.323723,4.150391
-0.072998,0.899048,3.087769,153.503418,242.675766,22.460936
-0.257446,0.401733,1.731323,134.58252,388.183563,-31.494139
-0.38855,-0.026611,0.945557,140.625,415.283173,-20.507811
0.321411,-0.189941,-0.640991,195.739731,326.660126,43.884274
1.641724,-0.537842,-2.63623,155.273437,27.099607,70.861816
1.626587,-0.560913,-2.566406,-8.850098,-349.365204,11.535644
0.486572,-0.244141,-0.946167,-117.492668,-522.583008,-31.005857
-0.084106,0.338379,0.511963,-158.508301,-549.133301,-68.664551
-0.858154,0.67395,2.401978,-122.13134,-489.440887,-102.844231
-1.223877,0.577759,3.687012,12.817382,-197.26561,-42.175289
-0.965332,0.555054,3.494873,100.769035,206.665024,17.028809
-0.696167,0.271484,2.060425,110.595695,394.165009,2.258301
-0.47522,-0.091675,1.11499,100.646965,407.104462,13.916015
-0.000122,-0.144653,0.119263,106.811516,395.507782,44.921871
1.204224,-0.192871,-1.583618,138.549805,247.985825,73.913574
2.120605,-0.344482,-2.840454,87.341301,-118.896477,53.771969
1.29187,-0.230713,-1.949707,-47.607418,-474.182098,-15.86914
0.049561,0.075439,-0.142212,-161.315903,-544.372559,-78.186035
-1.069336,0.349487,1.783936,-190.368637,-501.708954,-111.572258
-2.051147,0.536743,3.999878,-92.163078,-217.895493,-87.158195
-1.539551,0.70459,3.98938,-20.446775,40.710445,-69.580078
-1.274902,0.173584,2.275391,61.523434,468.017548,-64.819336
-0.755249,-0.280518,0.331299,118.10302,515.563965,-3.173828
1.330322,0.090698,-1.726074,224.548325,349.853485,133.544922
3.064819,0.285156,-2.746216,230.895981,62.011715,143.066406
1.502441,-0.077759,-1.786255,43.151852,-277.34375,-25.085447
-0.174683,-0.258545,-0.20105,-91.308586,-488.281219,-121.276848
-0.795044,-0.012817,1.060669,-145.935059,-492.187469,-133.056641
-1.323364,0.21521,2.501099,-160.339355,-405.944794,-133.911133
-1.264282,0.2323,2.839966,-86.608879,-185.913071,-100.46386
-0.636963,0.10791,1.796509,14.343261,58.593746,-45.471188
-0.371948,-0.093628,1.067139,34.667969,137.512207,-5.004883
-0.196655,-0.127441,0.908813,27.526854,119.445793,23.742674
0.036743,-0.01416,0.914062,22.827147,101.074211,37.658691
0.150146,0.059814,1.015869,17.822266,98.632805,28.137205
0.151001,0.022827,1.039795,16.540527,109.741203,2.868652
0.176025,-0.033813,0.958496,21.850584,122.192375,-1.159668
0.224365,-0.018921,0.900757,27.038572,124.633781,8.605957
0.29187,0.007446,0.967773,22.033689,123.779289,3.479004
0.254028,0.033569,1.297729,17.456055,138.793945,-5.92041
0.17334,-0.033691,1.538574,-1.831055,209.167465,-25.085447
0.115845,-0.045044,1.442871,-23.315428,318.17627,-29.846189
0.070923,-0.098999,1.293579,-25.634764,397.155731,-46.752926
0.208008,-0.117188,0.927368,-19.65332,476.80661,-46.081539
0.409302,-0.204346,0.423828,-23.315428,539.0625,-38.208008
0.619873,-0.168335,0.178833,-42.236324,516.357422,-25.939939
0.489014,-0.201538,0.232666,-52.978512,483.215302,-24.353025
0.465088,-0.265869,0.005127,-37.536621,501.159637,-2.01416
0.562134,-0.30127,-0.424805,-41.015621,509.155243,30.944822
0.68396,-0.231567,-0.559326,-40.954586,396.057098,62.683102
0.736328,-0.085449,-0.320801,-38.513184,288.513184,68.603516
0.650391,-0.11377,-0.540283,-66.894531,295.532227,55.786129
0.585815,-0.169189,-0.659424,-47.668453,284.362793,74.584961
0.53479,-0.142456,-0.788818,-6.103515,218.627914,100.524895
0.683716,-0.005249,-1.058105,22.15576,127.80761,111.022942
0.904175,-0.008789,-1.354004,34.729004,33.935547,141.845703
0.803223,0.055176,-1.224731,72.265625,-63.354488,189.819321
0.68042,0.136597,-1.119141,127.80761,-218.261703,197.631821
0.726196,0.275757,-0.860352,169.311508,-325.073212,183.65477
0.874146,0.565186,-0.483398,172.05809,-291.564941,136.84082
1.039673,0.605347,-0.644287,159.545898,-267.028809,69.946289
0.922241,0.518433,-0.614746,210.327133,-363.159149,25.207518
0.774658,0.476074,-0.174805,299.194336,-458.984344,10.986327
0.68689,0.408447,0.103149,346.557587,-477.966278,15.624999
0.604004,0.234131,0.06665,343.87204,-478.271454,28.07617
0.484131,0.157959,0.303589,305.908203,-479.309052,27.404783
0.386108,0.134888,0.580688,268.371582,-453.979462,21.789549
0.342651,0.161011,0.786499,223.449692,-420.898407,6.103515
0.326294,0.28479,1.120361,132.446289,-343.017548,-58.1665
0.1427,0.204468,1.141235,81.787102,-286.254883,-112.42675
-0.031494,0.015869,1.119507,117.553703,-255.187973,-71.472168
0.090942,0.186646,1.383423,112.915031,-152.038574,-47.363277
0.139038,0.293213,1.347412,83.496086,-67.871094,-87.09716
0.067749,0.234497,1.267944,84.533684,-47.973629,-102.72216
0.033203,0.120605,1.256836,93.261711,-23.254393,-121.582024
-0.012695,0.007568,1.236938,83.557121,23.437498,-124.328606
-0.088745,-0.102173,1.260742,54.626461,89.782707,-128.051758
-0.09436,-0.125732,1.327881,24.04785,158.02002,-128.295898
-0.063843,-0.168579,1.239258,1.464844,240.661606,-128.479004
-0.045288,-0.222168,1.131714,-19.287109,295.471191,-124.26757
0.059204,-0.207764,1.130981,-36.437988,319.580078,-122.924797
0.14917,-0.2229,1.063354,-36.315918,343.749969,-119.873039
0.237793,-0.270752,0.875122,-26.550291,359.863251,-105.163567
0.369751,-0.292847,0.771484,-17.456055,378.784149,-85.876457
0.502197,-0.341553,0.4823,-19.470215,403.320282,-65.307617
0.408813,-0.489868,0.327637,-24.230955,364.440887,-32.043457
0.436768,-0.415283,0.377197,-20.019531,299.987793,8.666992
0.660522,-0.200439,0.283081,1.708984,276.733398,27.9541
0.785522,-0.109741,0.199341,27.587889,262.939453,39.855957
0.803101,-0.109619,0.077515,43.273922,272.033691,55.969234
0.771973,-0.154053,-0.124268,36.682129,295.349121,58.04443
0.786133,-0.22644,-0.380127,47.851559,306.70166,74.279785
0.713623,-0.192139,-0.359375,81.787102,276.306152,121.826164
0.597778,-0.133057,-0.34314,91.857903,246.337875,140.686035
0.682495,-0.071777,-0.849609,98.999016,222.778305,162.597641
0.876709,0.311157,-0.969604,73.425293,172.790512,207.09227
0.951782,0.498291,-0.956909,33.081055,151.245117,195.861801
1.007324,0.364624,-0.948975,24.04785,94.726555,164.306625
0.616089,0.125977,-1.224609,-15.380858,-21.911619,131.591797
0.489014,0.221191,-1.039673,80.871574,-164.733871,133.850098
0.72522,0.494141,-0.787842,219.238266,-245.178207,139.831543
0.765259,0.590332,-0.446411,250.06102,-277.587891,112.976067
0.718506,0.629272,-0.266479,250.854477,-319.763184,46.386715
0.756958,0.738647,-0.109009,309.997559,-394.65329,-35.217285
0.64978,0.337524,0.262817,279.052734,-432.006805,-90.942375
0.556763,0.167969,0.504517,299.438477,-387.939423,-86.425774
0.521973,0.111938,0.674438,205.383286,-327.636688,-70.068359
0.565063,0.199585,0.891479,142.089844,-276.550293,-73.181152
0.613281,0.19104,1.080322,121.704094,-217.712387,-79.589844
0.783325,0.300903,1.239624,76.599121,-145.507812,-94.78759
0.688477,0.30127,1.265747,32.897949,-66.772461,-115.417473
0.584595,0.356201,1.332642,25.451658,5.676269,-138.671875
0.731934,0.110718,1.33606,29.296873,82.214348,-130.859375
0.869629,0.127808,1.34314,7.385253,167.846664,-89.843742
0.577759,0.038696,0.858521,-5.554199,231.201157,-68.664551
0.358154,-0.28125,-0.40271,53.466793,146.484375,-10.559081
0.966797,0.246094,-1.780029,83.06884,-80.26123,24.902342
1.19812,0.734253,-1.590332,23.559568,-382.263153,-96.130363
0.300537,0.204834,0.699585,-46.56982,-434.692352,-179.382309
-0.53833,-0.286377,2.767212,4.150391,-329.833954,-189.636215
-0.099487,-0.523926,3.999878,66.772461,-13.793944,-103.820793
-0.234009,-0.342285,3.467163,24.16992,412.475555,-15.930175
-0.535522,-0.581543,0.915771,12.634276,545.776367,73.669434
0.466187,0.002686,-1.980835,86.364738,348.327606,151.245117
1.650513,0.865234,-3.623169,88.806145,-68.481445,16.540527
0.943237,0.248413,-1.714111,-67.016602,-360.534637,-142.028809
-0.137451,-0.226196,0.936768,-129.394531,-396.911591,-160.766586
-0.174927,-0.316284,3.364502,-98.937981,-366.516083,-154.11377
0.198486,-0.316162,3.843506,-11.657714,-91.247551,-84.106438
0.231201,-0.247803,1.031128,-8.117676,261.59668,12.695312
0.931396,0.204956,-0.923218,50.964352,222.351059,67.871094
0.96228,0.077881,-0.357056,33.813477,5.371093,-3.479004
0.39856,-0.340942,1.329224,-22.216795,-89.294426,-68.54248
0.349487,-0.28186,2.341064,-20.080564,0.854492,-51.269527
0.296875,-0.317261,1.66394,-14.22119,188.476547,-19.470215
0.581177,-0.141113,-0.542969,10.620116,269.287109,36.437988
1.189819,0.226196,-2.199463,56.091305,103.942863,53.771969
0.977539,0.088989,-1.474731,37.841797,-191.528305,-17.822266
0.271484,-0.118652,0.455322,-38.391113,-337.768524,-78.369141
-0.2052,-0.317505,2.8302,-73.059082,-335.876434,-105.590813
-0.035522,-0.394531,3.999878,-0.610352,-150.268555,-65.002441
-0.023071,-0.33252,2.489502,19.714355,244.873032,16.418457
0.416504,-0.092651,-0.154053,48.095699,367.980927,77.209473
1.105347,0.233276,-1.786621,84.777824,236.022934,85.449211
1.100342,0.017822,-2.123779,42.236324,19.287109,13.671874
0.455566,-0.289917,-0.317261,-47.302242,-211.12059,-56.335445
0.160522,-0.300049,1.771973,-96.496574,-265.869141,-76.599121
0.329468,-0.235229,2.924438,-61.462399,-144.53125,-46.264645
0.406494,-0.335693,2.290405,-19.470215,64.63623,10.375976
0.641479,-0.107788,0.687866,-7.446289,182.128891,62.499996
1.033203,0.217773,-0.454224,0.976562,180.908188,73.791504
1.05481,0.206787,-0.726196,-7.690429,75.805664,23.986814
0.608765,-0.140625,0.830688,-42.175289,-109.130852,-61.340328
0.365112,-0.317139,2.208252,-43.395992,-105.407707,-68.786621
0.385132,-0.307861,1.848389,-23.559568,76.171875,-24.475096
0.60791,-0.168457,0.388184,-4.821777,169.006332,20.629881
1.009399,0.100952,-0.698364,27.9541,95.886223,41.564938
0.9646,0.061768,-0.587646,25.878904,-45.227047,2.13623
0.737549,-0.110596,-0.065674,-28.015135,-152.954102,-53.405758
0.445679,-0.251709,1.06189,-60.363766,-149.291992,-51.635738
0.526978,-0.068115,1.763062,-65.551758,-65.551758,-40.52734
0.564087,-0.077637,1.895386,-48.706051,49.194332,-32.836914
0.607788,-0.053223,1.323853,-15.747069,103.698723,-6.286621
0.699097,-0.015503,0.772461,18.127441,85.876457,6.469726
0.729492,0.050659,0.477661,42.358395,44.494625,-8.422852
0.833374,0.066162,0.342651,46.874996,5.737304,-40.222164
0.736694,-0.029541,0.317871,-25.695799,-38.146973,-90.209953
0.630127,-0.162476,0.432495,-149.963379,-70.861816,-111.755363
0.473877,-0.152832,0.343018,-320.495605,-108.459465,-113.952629
0.650513,-0.216431,0.656738,-234.069809,-172.546371,-91.491692
0.70459,-0.192871,1.012451,-159.118652,-111.022942,-66.467285
0.726196,-0.109863,0.966064,-117.492668,-22.705076,-42.297359
0.594971,0.033691,0.959473,-86.364738,6.04248,-36.010742
0.643066,0.077515,0.970825,-44.494625,-10.0708,-25.207518
0.614258,0.076172,0.961182,-35.949707,-15.686034,-24.597166
0.572998,0.028198,0.861206,-41.137691,-9.338379,-31.066893
0.514771,0.015991,0.865845,-30.151365,-4.699707,-33.752441
0.460083,0.02771,0.782715,-26.30615,-22.216795,-22.27783
0.397583,-0.016235,0.695312,-21.728514,-65.490723,-4.02832
0.373779,-0.04834,0.7323,-11.352538,-84.411613,25.878904
0.508301,0.162964,0.709473,-16.052246,-92.590324,32.287598
0.457031,0.248657,0.96167,-27.221678,-101.806633,4.272461
0.324341,0.189453,1.064697,-26.672361,-65.612793,-37.353516
0.311279,0.147339,1.034668,-31.616209,-28.930662,-61.645504
0.289185,0.096802,1.068481,-19.165039,2.441406,-60.363766
0.34314,0.100586,0.939331,-4.089355,29.479979,-42.724606
0.308838,0.04895,0.932373,-3.540039,25.085447,-30.639647
0.323975,0.012939,0.904419,1.342773,24.414061,-16.296387
0.399902,0.009766,0.825562,0.488281,22.583006,-2.197266
0.47998,0.070801,0.857178,-2.075195,3.723144,8.422852
0.462158,0.059448,0.884521,-2.380371,-5.798339,6.469726
0.443359,0.044189,0.887573,1.647949,-10.803222,8.361816
0.447144,0.048462,0.903564,1.708984,-14.038085,12.390136
0.45459,0.067139,0.93396,-0.305176,-12.695312,13.671874
0.47644,0.097168,0.954468,1.220703,-6.896972,11.901855
0.459473,0.095337,0.959717,0.854492,0.976562,4.638672
0.438232,0.060913,0.93811,-1.159668,8.361816,-0.183105
0.446167,0.046387,0.89502,-2.868652,12.939452,0.061035
0.44458,0.043823,0.875488,-4.150391,9.70459,1.342773
0.462402,0.073608,0.900024,-3.540039,2.258301,4.760742
0.473633,0.095093,0.91394,-1.586914,-2.502441,5.065917
0.47998,0.105225,0.922119,-0.427246,-5.737304,3.723144
0.47937,0.100586,0.926392,1.464844,-5.615234,1.342773
0.459961,0.092651,0.910522,3.479004,-3.112793,-0.305176
0.444336,0.081299,0.902222,2.01416,-0.976562,-1.586914
0.439697,0.087891,0.918945,0.305176,0.610352,-1.159668
0.442261,0.096313,0.917969,2.258301,2.807617,-1.098633
0.436157,0.090698,0.90271,2.990722,2.868652,-2.13623
0.432129,0.08374,0.891235,2.13623,1.281738,-1.708984
0.430054,0.07959,0.884277,0.549316,-0.183105,-0.366211
0.437866,0.087646,0.903687,-0.854492,-4.02832,2.075195
0.444458,0.093018,0.9104,-0.061035,-4.211426,2.685547
0.457397,0.105469,0.910889,1.586914,-2.075195,0.549316
0.442261,0.100342,0.912231,1.220703,-1.403808,-1.831055
0.428833,0.087158,0.918457,1.281738,1.525879,-1.647949
0.434937,0.087402,0.912109,1.281738,1.89209,0.427246
0.450317,0.092163,0.911499,2.075195,-1.464844,3.051758
0.462524,0.101074,0.925171,3.845215,-3.479004,4.089355
0.464722,0.099609,0.911987,3.356933,-2.01416,0.610352
0.433838,0.078735,0.901855,1.342773,-3.356933,-1.525879
0.424805,0.068848,0.9198,0.305176,-3.540039,0.976562
0.431274,0.076782,0.919189,0.671387,-1.037598,2.807617
0.426636,0.083984,0.902344,1.525879,-1.89209,3.662109
0.44043,0.080933,0.888916,1.037598,-5.249023,3.845215
0.43457,0.072144,0.891357,-0.732422,-6.225585,3.90625
0.439575,0.082764,0.905273,-0.610352,-7.629394,5.004883
0.437378,0.090942,0.919189,0.061035,-7.141113,3.90625
0.425537,0.08606,0.92041,1.647949,-7.446289,4.272461
0.414307,0.083374,0.925659,3.417969,-6.103515,4.577637
0.419678,0.073608,0.912964,3.90625,-5.737304,6.225585
0.432251,0.088379,0.931641,2.746582,-0.488281,3.051758
0.421143,0.083008,0.92688,2.624511,4.577637,0.061035
0.421875,0.076416,0.930298,3.479004,6.713867,-0.366211
0.42981,0.073486,0.940674,4.211426,9.033203,-0.183105
0.439575,0.087891,0.989868,6.835937,17.028809,0.061035
0.443481,0.093384,1.034058,13.671874,34.790039,0.244141
0.460815,0.128174,1.062256,24.536131,60.302731,0.854492
0.44812,0.125732,1.114868,31.616209,97.900383,-9.399414
0.441406,0.134155,1.182861,47.729488,164.978012,-22.094725
0.434082,0.137207,1.184448,58.105465,237.976059,-32.958984
0.505493,0.056641,1.059326,48.828121,305.541992,-51.635738
0.781372,0.059937,0.508789,34.606934,334.16745,-49.255367
0.612793,0.087524,0.623413,62.744137,240.35643,-36.376953
0.472168,0.004883,0.916748,74.21875,202.697739,-42.41943
0.713745,0.033569,0.737915,75.378418,256.225586,-38.146973
0.770386,-0.026123,0.351318,87.524406,292.84668,-35.15625
0.714966,-0.162231,0.158691,105.102531,282.531738,-27.160643
0.772217,-0.137817,0.100586,106.201164,260.803223,-9.521484
0.876221,-0.098755,-0.077637,84.472649,256.347656,-7.751464
0.888428,-0.128662,-0.18335,53.771969,243.347153,-17.211914
0.819092,-0.182495,-0.13562,12.573241,228.454575,-27.832029
0.750977,-0.200317,-0.148437,-19.897461,226.684555,-32.409668
0.799561,-0.187256,-0.288818,-12.023925,225.707993,-28.19824
0.840088,-0.145996,-0.381836,1.403808,217.956528,-23.315428
0.827393,-0.106812,-0.356934,1.342773,219.909653,-30.151365
1.096924,0.098267,-0.259155,-3.417969,234.924301,-52.856441
0.498169,-0.004639,0.05542,24.475096,295.227051,-109.252922
0.124146,-0.450562,-0.381104,38.574219,407.897919,-126.708977
0.294556,-0.285767,-0.901123,36.437988,403.869598,-72.387695
0.223022,-0.365356,-0.923584,55.786129,328.002899,-58.349606
0.218506,-0.2948,-0.992798,39.916992,305.358887,-42.175289
0.217285,-0.116455,-0.734375,21.118162,285.888672,-44.31152
0.081055,-0.129517,-0.818237,27.709959,286.315918,-62.683102
-0.077026,-0.21106,-1.150879,35.27832,262.268066,-75.866699
-0.141846,-0.258667,-1.244629,28.564451,206.665024,-77.575684
-0.184692,-0.222534,-1.297241,16.479492,139.831543,-77.392578
-0.203369,-0.17749,-1.208496,13.427733,81.29882,-83.496086
-0.217651,-0.119751,-1.206543,25.512693,39.794922,-85.20507
-0.249756,-0.090698,-1.400269,28.869627,-18.737793,-95.397942
-0.349243,-0.18457,-1.437012,27.9541,-77.636719,-101.013176
-0.427612,-0.333862,-1.487427,28.19824,-131.286621,-75.195312
-0.372314,-0.324707,-1.415649,9.216309,-170.898422,-48.034664
-0.321289,-0.341309,-1.391724,-22.338865,-205.139145,-28.07617
-0.186768,-0.31958,-1.369141,-68.17627,-235.412582,-12.695312
-0.122803,-0.373169,-1.38269,-94.299309,-281.311035,14.465331
0.025757,-0.295654,-1.384399,-90.88134,-347.106903,33.26416
0.218628,-0.218994,-0.996826,-95.214836,-349.853485,19.958496
0.364624,-0.25769,-0.84375,-113.647453,-320.43457,11.840819
0.566406,-0.230713,-0.800171,-135.864258,-307.739258,0.183105
0.627075,-0.219727,-0.712036,-123.046867,-309.448242,-19.165039
0.755127,-0.373413,-0.789429,-111.450188,-347.351044,-23.681639
0.695923,-0.209717,-0.877197,-143.981934,-413.635223,-45.959469
0.589111,-0.5802,-0.295166,-159.057617,-430.480927,-35.27832
0.573608,-0.432983,-0.092407,-157.470703,-388.061493,12.390136
0.71106,-0.323486,-0.026733,-120.910637,-372.375458,16.906738
0.802856,-0.339111,0.128052,-92.65136,-358.764618,21.423338
0.738281,-0.402344,0.221802,-79.162598,-348.571747,20.996092
0.720581,-0.491821,0.24646,-101.745598,-331.176727,23.742674
0.55835,-0.420776,0.430054,-110.229485,-323.730438,50.842281
0.556763,-0.437988,0.685791,-123.229973,-296.569824,92.529289
0.701782,-0.368286,0.759644,-124.26757,-250.793442,136.962891
0.467285,-0.14624,0.349731,-26.000975,-191.040024,163.940414
0.519287,-0.010742,0.310303,12.023925,-224.365219,152.893066
0.313232,0.066406,0.545776,-63.354488,-287.658691,118.10302
0.21936,0.053467,0.762695,-113.769524,-302.185059,72.753906
0.037476,0.00708,1.025513,-155.456543,-280.456543,24.963377
-0.014038,-0.004028,1.256714,-162.780746,-230.163559,-7.93457
-0.092163,-0.023071,1.282349,-116.638176,-158.813477,-19.042969
-0.073364,-0.250244,0.867554,-79.711914,-103.759758,-7.141113
-0.096069,-0.194946,0.79187,-48.46191,-123.962395,47.546383
-0.101318,0.122803,1.234619,-30.029295,-158.203125,87.768547
-0.134033,0.291992,1.335449,-43.823238,-104.064934,72.32666
0.02417,0.311035,0.943359,-46.081539,-43.151852,37.475586
-0.032593,0.148926,0.988525,3.295898,-44.128414,-6.16455
-0.058228,-0.169922,1.022217,-3.051758,-24.902342,-13.183593
-0.029053,0.050171,1.007202,-43.029781,-19.53125,39.306641
-0.038208,0.40564,1.212769,-69.824219,-23.559568,55.053707
-0.025024,0.328735,1.143677,-16.601562,7.629394,12.817382
-0.034668,0.051636,1.033691,-5.065917,35.15625,-16.113281
0.114624,0.087891,0.836792,-18.371582,37.29248,-1.342773
0.097168,0.061401,0.974487,-5.065917,5.92041,7.080078
0.048828,0.19751,1.00354,-34.851074,1.098633,18.371582
0.056763,0.280029,1.028931,-23.620604,3.967285,16.662598
0.056152,0.191772,0.966797,-12.939452,7.080078,2.197266
0.093628,0.147461,0.908203,-9.216309,-3.356933,5.676269
0.079956,0.227173,1.008911,-6.469726,-15.808105,17.63916
0.035889,0.231445,1.00293,-4.272461,-9.521484,11.779784
0.018677,0.23291,1.011475,1.281738,-6.347656,5.004883
-0.002319,0.241333,1.031128,7.385253,-0.976562,-3.051758
-0.029541,0.175903,0.985107,3.662109,-2.01416,-5.310058
0.031372,0.14502,0.972046,-5.676269,-7.568359,2.319336
0.04834,0.184204,0.9823,-6.774902,-7.324218,2.807617
0.024414,0.155151,0.992432,-2.319336,-7.263183,4.333496
0.009033,0.199341,0.979492,-3.051758,-9.277344,5.798339
0.023437,0.197632,0.986206,-2.563476,-9.58252,2.685547
0.041748,0.173584,0.989014,2.624511,-10.559081,7.080078
0.006836,0.207275,0.983276,0.610352,-10.986327,4.150391
-0.007202,0.186401,0.991699,-0.854492,-10.864257,2.624511
0.013306,0.174927,1.035034,9.033203,-8.483887,4.638672
-0.013306,0.216431,0.959473,7.995605,-7.141113,4.577637
-0.014404,0.08728,0.962891,14.22119,-15.441894,11.657714
-0.026367,0.162598,0.942261,13.305663,-21.972654,25.756834
-0.122559,0.27356,1.142334,7.385253,-6.713867,13.183593
-0.344482,0.456787,1.45166,33.02002,59.692379,-22.766111
-0.473633,0.651611,1.697144,64.086914,188.903793,-91.552727
-0.507324,0.518921,1.497314,79.223633,335.205048,-171.508774
-0.368286,-0.119019,0.717651,85.632317,397.827118,-182.250961
0.678467,-0.86499,-0.391846,48.583981,308.166504,-83.557121
1.847046,-1.114014,-1.208862,-3.417969,47.668453,60.241695
1.759644,-0.519897,-1.00061,-0.915527,-126.464836,129.211426
0.096313,0.570068,0.690308,18.737793,-424.987762,151.062012
-1.713379,0.81665,2.564941,12.756347,-436.279266,65.917969
-2.296143,1.358398,3.999878,132.995605,-165.344223,48.33984
-1.928711,0.904785,2.875854,160.15625,295.959473,-62.561031
-0.32251,-0.586548,-0.182129,172.668442,572.143555,-112.915031
2.203857,-1.138672,-2.424072,172.241196,404.724091,33.874512
2.180542,-0.76123,-1.554199,85.632317,-56.823727,96.496574
0.963501,-0.470337,-0.170898,-11.535644,-296.936035,35.339355
-0.555908,0.175049,1.660645,-65.795898,-329.772919,-15.258788
-1.136963,0.645874,3.186279,-49.926754,-180.847153,-31.005857
-0.734375,0.368896,2.254395,15.808105,115.600578,-44.677731
0.364502,-0.370117,0.399536,62.316891,230.224594,-21.789549
1.378906,-0.370483,-0.314331,51.391598,99.548332,47.912594
1.109741,-0.345337,-0.001831,13.305663,-65.856934,28.19824
0.047974,-0.18811,1.078857,-20.38574,-140.380859,-20.1416
-0.690796,0.131348,2.156982,-20.507811,-71.350098,-42.053219
-0.477661,0.057007,1.813477,10.131835,103.088371,-40.64941
0.574097,-0.348999,0.354248,31.555174,190.673813,-14.22119
1.501953,-0.584106,-0.625,19.592285,85.571281,24.230955
1.365967,-0.364746,-0.272461,-20.629881,-108.886711,30.334471
0.177002,0.005371,0.991821,-57.617184,-216.91893,-15.258788
-1.026001,0.337646,2.568237,-40.100098,-188.049301,-39.123535
-1.283936,0.48291,3.026367,32.226562,10.498046,-22.338865
-0.549438,-0.233032,1.224487,80.13916,246.948227,-22.827147
1.100098,-0.572876,-0.505737,77.941895,254.394516,38.94043
1.952637,-0.593262,-1.175781,21.484373,84.594719,47.485348
1.252808,-0.470337,-0.381958,-33.26416,-133.850098,3.295898
-0.098511,0.04834,1.201904,-66.894531,-241.394028,-29.663084
-1.152954,0.444458,2.994629,-41.137691,-187.316879,-35.705566
-1.158081,0.473267,2.833862,26.733397,64.331055,-19.104004
-0.75,0.151978,1.932251,65.856934,244.506821,-7.568359
0.587891,-0.454102,0.115845,57.373043,219.726547,37.414551
1.913818,-0.742187,-1.245483,3.90625,44.494625,42.480465
1.528687,-0.60791,-0.864502,-54.809566,-184.082016,-5.798339
0.200806,-0.021118,0.864014,-77.575684,-256.591797,-44.677731
-1.160034,0.426025,2.666748,-23.620604,-145.935059,-51.696774
-1.54248,0.547729,3.413452,61.645504,145.935059,-15.930175
-0.46875,-0.103027,1.301636,88.74511,318.29834,9.70459
1.179565,-0.778198,-0.869873,33.325195,188.293442,65.551758
2.244385,-0.677612,-1.595825,-26.489256,-76.23291,57.189938
1.388672,-0.282471,-0.550903,-65.734863,-285.827637,-12.817382
-0.277832,0.182739,1.343994,-71.105957,-305.114746,-58.715816
-1.517456,0.469727,3.093262,-13.000487,-126.708977,-52.612301
-1.673096,0.430542,3.367676,49.255367,185.54686,-21.057127
-0.450317,-0.067993,1.225952,74.523926,319.885254,33.26416
1.441772,-0.523926,-0.858521,39.978027,203.30809,73.364258
2.131104,-0.664429,-1.640503,-24.414061,-66.711426,25.573729
0.890503,-0.509888,-0.266357,-60.729977,-262.878418,-19.836426
-0.387573,0.182983,1.577148,-58.227535,-231.445297,-46.997066
-1.046631,0.313599,2.658936,-1.770019,-62.377926,-6.16455
-0.435181,0.39209,2.204346,63.781734,118.835442,15.258788
0.284302,-0.165405,0.887939,69.641113,153.747559,17.76123
0.748291,-0.396118,0.227173,54.687496,125.183098,21.423338
0.838989,-0.479614,0.049316,5.737304,42.66357,10.498046
0.690186,-0.282959,0.401123,-2.01416,-42.907711,5.615234
0.513916,-0.181885,0.761475,2.502441,-83.19091,-3.173828
0.296997,-0.105591,1.070313,-10.009766,-88.439934,-5.859375
0.138184,-0.09314,1.242432,-9.033203,-57.189938,-12.512206
0.119629,-0.00415,1.289795,1.159668,-18.920898,-15.197753
0.151978,-0.100952,1.143066,0.549316,15.99121,-43.090816
0.285889,-0.179565,1.032959,0.366211,26.000975,-50.659176
0.304321,-0.189209,0.902832,-15.319823,25.878904,-42.053219
0.181152,-0.282715,0.857178,-34.423828,9.70459,-41.503902
0.006348,-0.354248,0.834595,-49.438473,-10.253905,-37.902832
-0.104248,-0.352173,0.948975,-65.307617,-21.301268,-33.508301
-0.244141,-0.325195,0.983154,-79.284668,-8.300781,-29.96826
-0.471069,-0.35498,1.106689,-100.280754,15.930175,-42.41943
-0.558838,-0.473145,1.046509,-117.980949,52.917477,-29.113768
-0.468384,-0.373169,0.950928,-108.64257,82.641594,36.804199
-0.022095,-0.158936,0.745728,-79.589844,96.862785,126.281731
0.800537,0.32312,0.504517,-38.879395,77.270508,204.406723
1.569946,1.004272,0.646851,-59.997555,17.822266,176.879868
1.39917,1.106079,0.96582,-106.018059,-27.526854,7.446289
0.972656,0.82312,0.873657,-100.646965,-33.508301,-152.648926
0.776611,0.833618,1.218262,-106.262199,-43.701168,-251.037582
0.432617,0.927979,1.839966,-152.587891,19.042969,-339.355438
0.069824,0.858765,1.931396,-171.874985,162.963852,-412.658661
0.119141,0.644653,0.919067,-120.422356,283.813477,-454.833954
-0.146118,-0.141357,0.683472,-107.421867,216.552719,-449.279755
-0.210571,-0.436035,0.895142,-77.575684,173.583969,-317.871094
-0.715332,-0.792847,1.189209,-7.507324,159.790039,-164.12352
-1.446045,-1.442627,0.495972,115.051262,109.191887,83.19091
-0.912109,-0.549927,0.097656,198.486313,-48.950191,478.57663
-0.449097,0.09021,0.463257,214.599594,-184.570297,704.833923
0.801025,1.02002,1.194824,321.594208,-212.158188,718.933044
1.87854,1.519531,1.048828,297.119141,-265.991211,562.011719
2.067383,1.627808,0.712402,200.256332,-271.42334,253.784164
1.235474,1.243774,0.662231,81.848137,-188.049301,-58.471676
0.230957,0.631958,0.908203,-17.333984,-114.990227,-230.468735
0.153564,0.473389,1.029175,-95.397942,-84.350578,-297.363281
0.394287,0.573975,1.422974,-180.358871,-30.517576,-304.016113
0.190796,0.89917,1.812256,-205.32225,88.012688,-351.989716
-0.29248,0.467896,1.668579,-132.751465,201.17186,-343.139618
-0.359131,0.210571,1.258423,-68.29834,201.538071,-264.343262
-0.243164,0.038452,1.33667,-46.020504,208.496078,-203.674301
-0.012817,-0.081299,1.077637,-52.734371,283.02002,-131.530762
-0.013916,-0.159546,0.742432,-84.777824,347.412079,-68.847656
0.070557,-0.366089,0.738281,-74.157715,331.787079,25.146482
0.227173,-0.110229,0.486938,-110.107414,203.491196,111.938469
0.448364,-0.149048,-0.199829,-64.758301,92.041008,195.678696
0.810669,0.648437,-0.536011,34.057617,-51.452633,197.143539
1.071533,0.361084,-0.004272,-14.404296,-96.069328,99.609367
1.272461,0.151611,0.243652,-63.476559,-167.602524,135.192871
0.993164,0.864136,0.81604,9.338379,-196.899399,95.764153
0.632935,0.933228,0.914185,14.831542,-111.328117,16.784668
0.505493,0.533081,0.917847,-14.343261,-32.531738,-3.173828
0.635986,0.418945,0.897949,-2.563476,-7.263183,7.324218
0.773193,0.585815,0.951294,33.996582,16.357422,32.958984
0.856323,0.497559,0.951416,102.355949,54.931637,33.38623
0.843872,0.136597,0.64856,222.412094,128.295898,59.570309
0.540405,-0.148437,0.25647,399.963348,218.261703,227.905258
0.439087,0.772217,0.296509,499.206512,159.423828,407.287567
0.592896,1.422119,0.277832,289.550781,20.080564,277.954102
0.575806,1.55188,0.295898,76.538086,-56.945797,-3.784179
0.371826,1.153809,0.778687,-103.942863,-132.751465,-313.964844
-0.102173,0.579468,1.145386,-177.185043,-195.983871,-587.524414
-0.197266,-0.413696,1.310059,-137.939453,-195.49559,-709.716736
0.155884,-1.019897,1.312866,-25.024412,-106.018059,-540.83252
0.353027,-1.330811,1.086304,94.360344,-1.831055,-206.726059
0.052612,-1.41333,0.987061,198.181137,27.160643,189.758286
-0.292725,-1.088379,1.01709,263.000488,-2.746582,545.166016
-0.384033,-0.324829,1.048828,284.606934,-55.541988,757.018982
-0.219482,1.421509,0.965576,251.098618,-74.707031,770.01947
0.434204,2.486328,0.594482,73.303223,-66.833496,364.013641
0.531372,1.446533,1.012207,-57.678219,-123.535149,-238.586411
0.372925,0.53418,1.271973,-63.537594,-93.994133,-552.246094
0.262451,-0.229614,0.99707,-6.835937,-19.470215,-638.427734
0.522095,-1.050537,0.962891,20.629881,21.118162,-501.892059
0.674561,-1.354614,1.02771,46.44775,46.020504,-176.696762
0.355103,-1.057373,0.921997,54.626461,53.222652,170.837387
0.055908,-0.757446,0.872681,66.467285,27.221678,410.583466
-0.331055,-0.106812,0.907837,66.345215,1.647949,567.687988
-0.210937,1.553223,0.443726,-60.546871,10.009766,490.905731
0.212036,1.418335,0.658081,-146.728516,-58.04443,-10.0708
0.448608,0.511353,1.185059,-96.92382,-90.087883,-381.225555
0.507202,0.176025,1.147949,-25.451658,-36.621094,-492.614716
0.539551,-0.22168,1.029053,-9.94873,10.0708,-477.416962
0.662231,-1.200562,0.929321,18.798828,19.53125,-205.20018
0.548584,-1.381836,0.987305,79.650879,14.587401,202.209457
0.249756,-0.77124,0.894531,99.670403,-9.94873,465.881317
-0.165405,-0.167114,1.072021,8.117676,-0.549316,564.697266
-0.158936,1.258545,0.577515,-69.519043,7.019042,363.891571
0.242676,1.581421,0.658081,-114.685051,-44.921871,-107.727043
0.366943,0.803223,1.001099,-42.358395,-44.43359,-413.574188
0.383057,0.478638,0.931763,17.089844,-32.531738,-557.556152
0.457153,-0.530396,0.977173,25.634764,-23.803709,-493.530243
0.661621,-1.531006,1.111572,53.161617,17.51709,-148.498535
0.560913,-1.441406,1.020996,85.815422,36.071777,279.11377
0.203979,-0.65979,0.901978,94.604485,9.277344,516.662598
-0.234375,-0.079346,1.070068,35.217285,22.521971,587.646484
-0.153809,1.288208,0.481934,-51.940914,5.249023,365.112274
0.266724,1.595581,0.600708,-117.797844,-58.105465,-119.934074
0.412231,0.721313,0.94397,-55.114742,-63.415524,-397.582977
0.477051,0.293091,1.023926,-0.732422,-36.682129,-490.051239
0.504883,-0.559204,0.978516,30.944822,-13.916015,-404.235809
0.664551,-1.316162,1.016968,58.04443,7.93457,-92.285149
0.506958,-1.185059,0.976929,77.087402,18.432617,277.770996
0.296021,-0.558838,0.924927,77.270508,-3.784179,481.811493
-0.151489,-0.022827,1.097778,17.272949,31.005857,545.043945
-0.062378,1.390137,0.417969,4.516602,30.334471,474.426239
0.251709,1.495605,0.740234,-74.035645,-46.691891,55.664059
0.358765,0.69104,0.990356,-87.707512,-56.091305,-337.097137
0.345093,0.390503,0.914307,-38.452148,-37.536621,-503.478973
0.367065,-0.54187,1.000488,-21.972654,-40.100098,-552.429199
0.608521,-1.341064,1.11853,-13.183593,-23.620604,-367.370575
0.620361,-1.368408,1.131592,42.907711,11.657714,7.995605
0.297363,-0.666382,0.925171,94.421379,37.475586,360.717743
-0.043091,-0.292358,1.060547,95.092766,17.333984,527.587891
-0.288818,0.851562,0.682983,32.653809,36.92627,553.100586
0.184326,1.699341,0.498413,-61.645504,-0.244141,246.15477
0.372437,0.864624,0.912476,-99.426262,-59.448238,-218.078598
0.489868,0.353027,1.04895,-48.522945,-47.363277,-434.509247
0.4021,-0.204346,0.915771,-18.554687,-25.512693,-490.53952
0.508423,-1.060791,1.002197,-0.793457,-18.615723,-381.04245
0.566406,-1.44043,1.084229,40.710445,2.197266,-56.335445
0.398438,-0.716919,0.958374,84.167473,24.719236,315.979004
0.140991,-0.294067,1.109741,94.543449,11.352538,491.516083
-0.221558,0.699097,0.755249,50.781246,40.466305,533.874512
0.157227,1.729614,0.482788,-24.902342,7.019042,274.414062
0.311523,0.882202,0.856323,-90.148918,-53.344723,-201.232895
0.429077,0.377686,0.976929,-48.706051,-46.56982,-427.79538
0.39917,-0.140503,0.932861,-24.658201,-34.301758,-499.999969
0.501465,-1.075317,1.010132,-8.605957,-28.808592,-410.888641
0.590698,-1.450439,1.085083,37.780762,-7.8125,-86.425774
0.396606,-0.846069,0.967651,72.08252,17.089844,292.358398
0.122803,-0.368408,1.088013,79.833984,6.469726,498.10788
-0.257446,0.614014,0.797974,19.714355,33.691406,552.001953
0.104126,1.615356,0.488037,-18.737793,7.568359,321.716278
0.320435,0.96936,0.915283,-83.801262,-52.062984,-129.333496
0.381592,0.58313,0.958862,-59.082027,-35.522461,-388.366669
0.375122,0.422363,0.910278,-29.235838,-26.916502,-513.122559
0.373901,-0.462158,0.923218,-13.061522,-30.395506,-467.163055
0.522583,-1.161621,1.013184,20.324705,-18.798828,-200.378403
0.648926,-1.311157,1.112793,54.13818,6.958007,158.569336
0.44104,-0.75647,1.022583,75.683594,21.423338,426.757782
0.118896,-0.341187,1.203979,26.123045,43.151852,543.212891
-0.308228,0.602783,0.7052,-5.737304,73.120117,480.041473
0.042114,1.695557,0.318359,-79.772949,-40.466305,68.42041
0.273193,1.015503,0.867187,-103.942863,-72.08252,-328.735321
0.44812,0.445557,0.994629,-43.090816,-54.321285,-471.984833
0.433838,-0.064697,0.963257,0.305176,-46.630856,-487.792938
0.498169,-0.93811,1.026001,25.512693,-26.245115,-304.626465
0.606323,-1.387085,1.086914,65.429687,-1.464844,55.114742
0.425659,-0.858276,1.029419,89.355461,20.38574,367.004364
0.185669,-0.389893,1.124268,54.870602,36.376953,511.474579
-0.233154,0.419312,0.827026,16.845703,72.265625,503.173798
0.046265,1.616089,0.331055,-47.363277,-29.541014,142.700195
0.286621,1.079834,0.846558,-95.642082,-69.702148,-276.184082
0.341187,0.494141,0.979126,-54.565426,-52.12402,-455.200165
0.36731,0.161011,0.865479,-10.31494,-61.340328,-520.202637
0.461182,-0.796631,1.062256,-0.549316,-47.851559,-383.300751
0.668335,-1.480591,1.194092,46.203609,-4.699707,-32.043457
0.485352,-1.12146,1.116943,73.303223,15.686034,165.100082
0.112793,-0.498901,0.980957,104.431145,28.259275,447.265594
-0.219727,0.11499,1.078979,33.14209,39.916992,564.27002
-0.125,1.415405,0.267944,-48.889156,69.885254,478.271454
0.279541,1.393066,0.668701,-71.289062,-52.612301,56.396481
0.354126,0.513794,1.117798,-62.377926,-74.951172,-302.429199
0.379883,0.432495,0.88916,-10.498046,-35.888672,-445.312469
0.401978,-0.376831,0.920776,9.399414,-47.119137,-506.957977
0.574707,-1.27356,1.103027,9.460449,-37.658691,-334.594696
0.575806,-1.313721,1.192383,47.607418,-4.394531,25.451658
0.300293,-0.670166,1.02478,82.153313,28.503416,358.215302
-0.096069,-0.224487,1.217896,52.795406,39.916992,526.367188
-0.259644,0.88855,0.486206,-13.427733,94.116203,541.442871
0.164185,1.539307,0.4021,-38.330078,1.098633,242.614731
0.358765,0.811157,1.033447,-60.241695,-73.608398,-172.05809
0.359497,0.552002,0.964966,-42.358395,-40.954586,-398.071259
0.339966,0.04834,0.813354,-2.624511,-38.208008,-509.582489
0.433594,-0.901733,0.967529,2.197266,-52.36816,-445.190399
0.646729,-1.362061,1.175049,26.18408,-35.705566,-163.085922
0.505127,-1.031616,1.127441,66.650391,4.455566,189.331039
0.16687,-0.56189,1.116089,87.951653,21.057127,447.998016
-0.255249,0.203125,1.061523,13.671874,63.659664,573.791504
-0.124512,1.449951,0.194092,-34.667969,77.392578,452.026337
0.272095,1.256104,0.707031,-40.954586,-59.997555,26.489256
0.388794,0.600952,1.098145,-60.363766,-68.603516,-300.048828
0.385742,0.353516,0.914795,-15.319823,-27.343748,-448.974579
0.39624,-0.45874,0.876099,18.310547,-31.921385,-487.670868
0.569092,-1.216797,1.03772,26.977537,-33.203125,-301.757812
0.531372,-1.216797,1.168091,41.687008,-7.263183,38.024902
0.318115,-0.709839,1.007935,57.312008,24.29199,337.341278
-0.012939,-0.269165,1.262329,46.081539,34.118652,515.075684
-0.207397,0.259277,1.046631,-20.996092,94.299309,535.644531
-0.098022,1.585938,0.165894,-37.231445,-5.798339,203.857407
0.277222,1.285278,0.786743,-65.124512,-82.94677,-241.577133
0.386353,0.576172,1.108032,-26.611326,-31.066893,-443.237274
0.351074,0.230591,0.892456,33.996582,-22.644041,-526.611328
0.362061,-0.763794,0.925537,58.898922,-20.935057,-399.597137
0.613159,-1.390747,1.013794,50.964352,-7.080078,-75.012207
0.562378,-1.131104,1.082031,52.734371,6.408691,260.131836
0.287109,-0.661133,0.97583,85.510246,2.929687,470.8862
-0.128906,-0.179077,1.24353,-1.89209,50.292965,568.359375
-0.183105,1.195679,0.432861,-35.766602,39.001465,345.092743
0.253418,1.253784,0.628052,-52.001949,-54.321285,-76.049805
0.40686,0.542603,1.060303,-49.194332,-31.249998,-304.382324
0.368164,0.504517,0.93396,-12.08496,1.586914,-427.673309
0.359619,-0.113281,0.821533,7.202148,1.525879,-441.101044
0.549316,-0.984985,0.847778,2.380371,-16.296387,-243.652328
0.709595,-1.165527,1.103516,15.441894,-5.493164,59.143063
0.529297,-0.797852,1.050659,47.363277,16.967773,306.945801
0.247559,-0.435669,1.004883,61.462399,15.136718,458.312958
-0.084595,0.282959,1.042847,13.427733,58.837887,461.547821
-0.012817,1.292236,0.341797,-20.080564,-9.643555,160.949692
0.336182,0.955078,0.835571,-59.448238,-61.828609,-204.772934
0.396484,0.388794,1.067505,-57.983395,-41.809078,-296.020508
0.339722,0.379028,0.858276,-30.456541,-9.643555,-406.982391
0.382446,-0.482056,0.8302,-12.329101,-19.836426,-458.312958
0.603027,-1.119507,1.041382,-4.333496,-34.057617,-294.677734
0.692139,-1.11499,1.163452,22.460936,-12.145995,-8.483887
0.435181,-0.702026,0.995728,62.499996,18.859863,261.169434
0.147949,-0.379883,1.114746,82.763664,16.052246,432.250946
-0.174316,0.50708,0.868774,17.944336,58.471676,493.774384
0.092773,1.417847,0.307251,-8.483887,32.409668,285.03418
0.373901,0.772583,0.940186,-51.879879,-62.19482,-114.013664
0.424072,0.398682,1.025024,-50.720211,-29.541014,-325.195282
0.394653,0.089722,0.847168,-8.789063,-4.516602,-423.706024
0.455078,-0.756714,0.839966,6.04248,-12.268065,-400.69577
0.647461,-1.20105,1.035522,12.451171,-22.521971,-181.457504
0.600586,-0.997559,1.064331,38.085937,-5.310058,114.44091
0.332153,-0.600708,0.959351,68.847656,3.967285,351.318329
0.016602,-0.093872,1.182251,60.485836,5.310058,487.182587
-0.108398,1.179443,0.432129,-8.911133,54.321285,443.603485
0.260742,1.351685,0.60144,-45.898434,-35.03418,65.551758
0.408569,0.475342,1.079712,-71.533203,-57.678219,-279.663086
0.293945,0.416016,0.917358,-51.818844,-14.038085,-421.569794
0.301025,-0.417236,0.859497,-27.221678,-20.812986,-504.211395
0.572266,-1.268677,1.059814,-17.028809,-31.127928,-354.003876
0.627441,-1.316528,1.152954,13.122558,-9.338379,-25.512693
0.408325,-0.762207,0.992798,55.175777,18.615723,293.701172
0.148437,-0.504639,1.144775,74.645996,15.258788,482.48288
-0.223267,0.429199,0.97229,17.39502,62.499996,573.913574
-0.003052,1.674805,0.225464,-7.873535,48.767086,374.450653
0.341309,0.910645,0.859009,-29.907225,-71.228027,-90.698235
0.398071,0.403809,1.103271,-55.603024,-45.104977,-323.364227
0.305786,0.287231,0.818604,-33.447266,-4.211426,-440.124481
0.303711,-0.143921,0.77478,-3.356933,-24.475096,-472.228973
0.467773,-0.956421,0.885132,19.470215,-45.532223,-273.498535
0.672485,-1.180664,1.131104,47.790524,-23.681639,22.338865
0.55481,-0.944702,1.073608,71.960449,5.798339,292.663574
0.26123,-0.630615,1.017212,86.364738,1.525879,474.121063
-0.088501,-0.064819,1.234985,-3.90625,59.570309,539.18457
-0.088135,1.236816,0.374023,-35.27832,27.832029,302.307129
0.252075,1.209717,0.63855,-54.870602,-67.810059,-103.942863
0.40918,0.473877,1.085083,-74.21875,-34.729004,-302.490234
0.333618,0.581055,0.931396,-38.94043,-0.305176,-442.443817
0.317871,-0.128296,0.822876,-22.460936,-14.160155,-482.360809
0.512695,-1.072266,0.931763,-1.464844,-27.832029,-265.563965
0.676392,-1.318604,1.171021,26.000975,3.601074,77.697754
0.476318,-0.905273,1.019531,52.36816,29.296873,367.370575
0.176025,-0.516602,1.12561,47.546383,32.287598,532.714844
-0.222168,0.36377,0.960205,-1.953125,83.801262,527.46582
-0.043701,1.642456,0.201172,-31.86035,-24.719236,156.616211
0.328491,1.030762,0.842285,-73.059082,-81.237785,-247.009262
0.403809,0.509277,1.111084,-49.865719,-27.343748,-409.118622
0.297974,0.273071,0.837891,-1.953125,-18.981934,-502.807587
0.363037,-0.639526,0.859741,17.822266,-39.367676,-414.611786
0.639648,-1.365479,1.080444,37.841797,-26.123045,-97.778313
0.61377,-1.169922,1.145386,52.429195,-6.958007,87.951653
0.341553,-0.596191,0.948853,74.768066,18.859863,373.535126
-0.004272,-0.225342,1.238525,68.969727,14.09912,521.66748
-0.171997,1.00061,0.559326,-25.634764,74.951172,515.258789
0.162842,1.546021,0.396118,-54.748531,-3.417969,170.776352
0.402832,0.661133,1.055542,-76.721191,-75.012207,-234.31395
0.364014,0.47937,1.000854,-64.086914,-26.428221,-406.127899
0.30127,-0.070801,0.796753,-13.122558,-15.136718,-501.525848
0.471436,-1.024536,0.924805,11.413573,-35.095215,-417.480438
0.682007,-1.397705,1.17981,32.958984,-26.428221,-113.708488
0.48999,-0.982544,1.087036,62.866207,16.052246,242.065414
0.155151,-0.483643,1.101563,75.195312,27.648924,479.919403
-0.227051,0.420654,0.9646,16.235352,63.781734,570.19043
-0.024048,1.709351,0.138794,-32.653809,55.419918,376.953094
0.343262,1.178345,0.803101,-58.776852,-76.904297,-100.036613
0.374756,0.536621,1.088867,-57.250973,-60.241695,-387.573212
0.298706,0.199463,0.850586,-4.272461,-23.437498,-515.258789
0.35144,-0.846802,0.942261,14.160155,-40.893551,-522.827148
0.60022,-1.491943,1.090698,20.446775,-29.479979,-260.253906
0.574341,-1.177856,1.126831,46.813961,0.305176,122.436516
0.330322,-0.683838,1.017334,76.049805,19.714355,408.447235
-0.109863,-0.256836,1.301147,65.551758,32.348633,577.270508
-0.282349,1.166748,0.365234,-9.765625,98.510735,574.035645
0.140991,1.717773,0.316772,-42.297359,-21.118162,175.109848
0.401367,0.628296,1.121094,-97.595207,-104.003899,-280.944824
0.403931,0.352417,1.062378,-60.607906,-37.719727,-441.406219
0.352417,-0.228638,0.809692,7.080078,-13.793944,-504.15036
0.528809,-1.098999,0.915894,27.099607,-33.38623,-388.549774
0.674927,-1.358643,1.140625,44.616695,-21.850584,-65.063477
0.459351,-0.778931,1.029907,65.307617,11.718749,268.005371
0.167847,-0.40332,1.132568,89.172356,13.244628,453.552216
-0.033081,-0.042114,1.198242,34.057617,59.326168,519.836426
-0.114258,1.238037,0.380371,-6.835937,36.132812,290.95459
0.254028,1.319702,0.589722,-59.509274,-66.223145,-148.132324
0.424194,0.460327,1.111328,-62.866207,-32.653809,-373.779266
0.363037,0.261597,0.925049,-19.714355,-10.742187,-475.830048
0.368164,-0.514038,0.905762,-7.019042,-24.475096,-432.250946
0.644897,-1.310791,1.051025,20.080564,-11.718749,-141.662598
0.643555,-1.246094,1.120361,52.429195,24.963377,218.566879
0.401733,-0.847778,1.025024,57.678219,36.071777,472.106903
-0.066284,-0.306396,1.260864,-5.798339,101.318352,610.595703
-0.222534,0.993652,0.401245,-28.381346,84.716789,461.791962
0.088501,1.610107,0.263306,-52.307125,-51.757809,20.996092
0.377319,0.936157,0.751831,-107.116692,-98.510735,-310.241699
0.379883,0.525635,1.083008,-65.795898,-61.889645,-473.266571
0.388916,-0.096069,0.879272,10.131835,-42.66357,-493.530243
0.528564,-0.838257,0.892944,22.705076,-57.006832,-322.32663
0.744141,-1.362427,1.219116,43.457027,-21.667479,16.418457
0.537231,-0.916626,1.174316,68.115234,36.804199,322.387665
0.291382,-0.384399,0.988647,80.444328,42.053219,473.02243
-0.078369,0.213135,1.083984,2.197266,86.547844,483.520477
-0.019043,1.353394,0.232544,-38.330078,20.874022,197.204575
0.314331,1.136841,0.641968,-83.19091,-75.866699,-193.420395
0.424438,0.552002,1.04187,-91.735832,-68.054199,-311.462402
0.364624,0.38147,0.80127,-54.321285,-32.226562,-448.120087
0.362793,-0.388428,0.80249,-19.40918,-53.894039,-497.802704
0.572144,-1.186401,1.121582,-10.009766,-66.345215,-343.811005
0.64563,-1.239624,1.222656,39.0625,-20.1416,-22.827147
0.423462,-0.705078,1.016846,83.312981,23.864744,277.22168
0.192261,-0.363403,1.039429,105.773918,25.939939,459.533661
-0.065796,0.323364,1.067261,53.405758,50.415035,535.949707
0.029419,1.44812,0.237427,-42.114254,67.260742,380.065887
0.311646,1.127563,0.657593,-85.754387,-56.579586,-36.437988
0.39978,0.597046,1.042236,-100.097649,-70.678711,-317.871094
0.362793,0.294678,0.849731,-65.856934,-37.29248,-455.688446
0.393188,-0.47937,0.895752,-37.29248,-55.297848,-486.877411
0.572388,-1.128174,1.167358,-27.465818,-59.204098,-322.57077
0.638428,-1.273804,1.241089,35.095215,-10.803222,-8.178711
0.390381,-0.715454,1.063721,91.125481,37.29248,317.321777
0.096436,-0.271362,1.084961,127.868645,43.273922,510.742157
-0.246216,0.640991,0.819702,48.889156,68.115234,552.124023
0.099609,1.610352,0.197998,-16.967773,35.27832,309.631348
0.378784,1.008179,0.81543,-62.805172,-74.09668,-121.032707
0.418457,0.591919,0.997681,-56.823727,-60.791012,-370.361298
0.345093,0.156494,0.83606,-34.179687,-44.616695,-503.784149
0.370239,-0.864258,0.978882,-20.1416,-59.265133,-485.351532
0.606812,-1.428589,1.201538,10.009766,-36.682129,-215.576157
0.56604,-1.10083,1.177979,55.664059,14.770507,156.921387
0.280518,-0.595947,1.070435,83.374016,42.968746,432.311981
-0.186035,-0.011475,1.242432,57.800289,61.523434,574.157715
-0.198608,1.427368,0.181885,-6.652832,102.111809,502.929657
0.263062,1.660522,0.447266,-60.607906,-41.503902,71.350098
0.42627,0.645752,1.082275,-104.919426,-93.261711,-332.15329
0.423218,0.193604,0.969604,-58.471676,-47.424313,-477.111786
0.386353,-0.118286,0.87854,-0.427246,-47.546383,-487.304657
0.454468,-0.949097,0.943115,25.451658,-51.269527,-292.297363
0.62793,-1.348145,1.195801,54.13818,-9.94873,67.077637
0.468628,-0.812866,1.093018,78.979492,29.296873,350.036591
0.267212,-0.394775,1.089111,77.941895,38.818359,493.835419
-0.093506,0.238647,1.149292,5.981445,106.689445,501.892059
-0.037231,1.393066,0.167114,-25.573729,32.592773,219.726547
0.286255,1.244019,0.549561,-65.612793,-81.237785,-185.607895
0.460693,0.494995,1.060913,-74.34082,-52.062984,-370.239227
0.427734,0.260132,0.890137,-33.935547,-36.682129,-443.603485
0.383667,-0.328369,0.811279,-2.990722,-58.593746,-388.610809
0.557129,-0.97644,1.049316,16.052246,-49.011227,-159.423828
0.635254,-1.039429,1.262573,49.072262,4.760742,131.774902
0.441895,-0.654663,1.091919,76.11084,42.907711,349.121063
0.250366,-0.290771,1.137451,57.800289,63.720699,472.595184
-0.124268,0.421021,0.835815,18.859863,99.121086,434.875458
0.068481,1.419189,0.172485,-47.912594,-21.728514,105.712883
0.36438,1.02478,0.748047,-113.281242,-86.486809,-247.497543
0.472168,0.477051,1.079102,-100.036613,-52.36816,-397.399872
0.387085,0.243042,0.858643,-52.36816,-52.307125,-468.200653
0.408325,-0.4375,0.855591,-21.240232,-78.918457,-390.014618
0.596558,-1.230225,1.206787,41.442867,-44.43359,-94.604485
0.595459,-1.0802,1.295776,68.603516,-7.873535,81.970207
0.375854,-0.558472,1.09375,105.224602,36.92627,341.003387
0.015625,-0.130371,1.282593,95.458977,54.809566,475.830048
-0.147461,1.129761,0.297241,6.896972,118.469231,461.608856
0.298584,1.182251,0.428467,-6.103515,5.249023,149.291992
0.483521,0.166138,0.918213,5.187988,-55.847164,-118.041985
0.579468,0.005615,0.957886,8.422852,-34.790039,-152.954102
0.570801,-0.242554,0.933594,6.103515,-19.592285,-122.924797
0.480103,-0.233154,0.877319,-4.394531,-13.916015,-14.160155
0.43103,0.117432,0.913696,-7.385253,-17.76123,68.17627
0.473633,0.257935,0.959595,-6.469726,-14.526366,49.865719
0.483398,0.215698,0.995972,1.586914,-7.141113,-8.300781
0.439819,0.041748,0.898682,12.145995,2.990722,-43.518063
0.428101,-0.046265,0.871094,6.958007,-1.464844,-30.334471
0.448608,-0.050903,0.905884,-0.183105,-6.652832,1.708984
0.471436,0.095947,0.915405,-1.525879,-7.690429,20.812986
0.459839,0.165894,0.913574,-0.366211,-7.080078,7.141113
0.440674,0.115112,0.887695,0.305176,-6.103515,-13.122558
0.454956,0.001709,0.914673,-0.549316,-6.835937,-15.502929
0.472046,-0.001953,0.939209,-2.563476,-4.516602,-1.037598
0.438599,0.078491,0.907715,-1.281738,-0.305176,8.605957
0.410034,0.100586,0.876343,4.638672,-1.220703,2.075195
0.447388,0.079346,0.887573,6.347656,-5.126953,-6.103515
0.469482,0.020508,0.938354,3.601074,-6.652832,-5.615234
0.450562,0.046997,0.929321,-0.12207,-3.356933,2.380371
0.432495,0.068115,0.927002,0.366211,-1.464844,4.943848
0.423828,0.084106,0.909302,3.112793,0.915527,4.333496
0.435425,0.054565,0.92041,4.760742,1.220703,2.319336
0.447266,0.089478,0.901489,3.234863,2.01416,2.929687
0.448242,0.062256,0.915161,1.403808,0.12207,-3.112793
0.441162,0.032349,0.930176,4.211426,0.061035,-4.699707
0.432861,0.039185,0.920532,6.896972,1.647949,-1.586914
0.435303,0.065674,0.890747,5.187988,1.037598,-0.305176
0.447876,0.077271,0.903198,2.197266,-0.305176,-0.793457
0.448364,0.049316,0.929321,1.281738,1.098633,-1.159668
0.444702,0.03125,0.937256,2.075195,3.112793,0.854492
0.449585,0.036133,0.943604,3.356933,5.432128,2.990722
0.422729,0.055054,0.909912,4.150391,6.469726,3.601074
0.43457,0.048828,0.925171,5.737304,5.432128,1.647949
0.461548,0.051758,0.951538,7.202148,7.995605,1.831055
0.454956,0.016235,0.97644,8.483887,13.610839,5.249023
0.463989,-0.056152,1.032471,12.756347,22.216795,18.676758
0.500488,-0.140259,1.134033,8.361816,42.66357,45.104977
0.509888,-0.104126,1.182373,-9.70459,70.739746,64.758301
0.548584,-0.083374,1.270264,-46.508785,103.149406,65.307617
0.547852,-0.016235,1.356201,-71.166992,153.442383,57.922359
0.457153,0.089722,1.24292,-62.07275,210.937485,49.499508
0.42041,0.222168,0.959961,-64.697266,231.201157,24.353025
0.501343,0.266602,0.942383,-68.115234,236.999496,-11.047362
0.567505,0.205933,0.957764,-52.734371,266.784668,-31.494139
0.586426,0.362183,0.945312,-49.865719,321.838348,-64.941406
0.594849,0.325195,0.516968,-20.202635,327.636688,-111.328117
0.716187,0.175537,0.192505,36.743164,248.779282,-103.881828
0.876709,0.172852,0.196777,53.588863,192.993149,-93.322746
0.825073,0.074707,0.537842,84.533684,146.179199,-62.927242
0.719604,0.087402,0.456177,-22.338865,183.349594,-33.081055
0.709229,0.244507,0.37146,-56.27441,218.566879,-28.320311
0.782593,0.021484,0.240601,43.701168,277.526855,-16.845703
0.699829,0.083862,0.094604,-64.39209,328.186005,19.958496
0.571777,0.177002,-0.229492,-98.632805,351.440399,17.76123
0.580933,0.11145,-0.670654,-22.888182,318.786621,-3.540039
0.648193,0.088623,-0.677856,37.353516,248.04686,-9.70459
0.574219,0.074097,-0.649536,67.565918,233.154282,-10.0708
0.534302,0.048218,-0.917603,58.349606,225.524887,-17.578125
0.578613,0.042603,-0.885864,56.823727,162.658676,-25.695799
0.559082,0.071045,-0.898804,35.644531,131.896973,-25.756834
0.506592,0.014038,-1.023926,13.305663,118.408195,-28.930662
0.544922,0.008911,-1.092407,3.845215,90.515129,-23.132322
0.549927,0.022583,-1.070679,0.793457,62.07275,-19.104004
0.537231,-0.005249,-1.022461,4.699707,34.484863,-15.563964
0.576904,0.030762,-1.014282,12.817382,9.277344,-10.803222
0.5979,0.013306,-0.944458,20.26367,-9.58252,-11.108397
0.61731,-0.003052,-0.891724,12.573241,-17.150879,-11.291503
0.63147,-0.022095,-0.798828,1.342773,-19.287109,-10.253905
0.660278,-0.016968,-0.772339,-0.427246,-17.39502,-4.943848
0.69751,0.028931,-0.763428,5.676269,-17.700195,-0.732422
0.698486,0.033691,-0.75,9.216309,-22.521971,-4.211426
0.683838,0.012329,-0.743286,9.58252,-26.367186,-7.141113
0.696045,0.010132,-0.685181,10.253905,-26.000975,-4.089355
0.736816,0.047852,-0.648437,9.460449,-19.958496,0.427246
0.741821,0.068115,-0.668579,7.263183,-10.925292,0.915527
0.721436,0.0625,-0.690186,6.958007,-8.483887,-1.525879
0.703125,0.040405,-0.673462,7.93457,-10.375976,-3.479004
0.712036,0.044556,-0.664307,9.58252,-9.70459,-1.770019
0.715454,0.049683,-0.658081,6.04248,-6.652832,-0.488281
0.712036,0.053833,-0.672485,2.075195,-3.90625,1.220703
0.712402,0.067505,-0.700684,0.305176,-5.737304,1.220703
0.694946,0.046021,-0.71875,0.305176,-10.864257,2.929687
0.7052,0.062378,-0.761719,-0.915527,-19.165039,7.141113
0.728149,0.083496,-0.733276,-3.356933,-27.160643,7.93457
0.72998,0.077271,-0.719604,-5.493164,-31.799314,9.643555
0.734741,0.085327,-0.714355,-4.577637,-36.560059,9.521484
0.723877,0.062866,-0.751099,-5.554199,-45.043941,12.451171
0.729492,0.099854,-0.787476,-6.591796,-58.837887,14.038085
0.723999,0.089966,-0.82959,-4.638672,-79.406738,10.009766
0.716919,0.060669,-0.846436,-2.746582,-115.966789,15.808105
0.707642,0.091309,-0.871704,26.977537,-179.62645,17.63916
0.733887,0.148193,-0.94873,59.082027,-253.112778,6.225585
0.82312,0.239014,-1.108154,67.260742,-353.027313,-15.014647
0.79126,0.279907,-0.832153,69.702148,-436.096161,-51.574703
0.629883,0.097046,-0.594238,82.153313,-491.027802,-77.514648
0.533081,0.084106,-0.276611,73.852539,-541.19873,-93.261711
0.469849,-0.040894,0.179932,77.636719,-538.818359,-99.121086
0.440918,-0.141479,0.401733,87.09716,-495.239227,-84.83886
0.406738,-0.109619,0.520142,79.833984,-472.90036,-78.369141
0.216064,-0.255005,0.651245,91.857903,-481.994598,-68.054199
0.192017,-0.142212,0.43103,101.501457,-485.107391,-57.067867
-0.012573,-0.174194,0.514282,98.632805,-530.578613,-77.819824
-0.177979,-0.255005,0.90686,97.900383,-545.227051,-89.843742
-0.23645,-0.130005,0.991455,101.867668,-510.864227,-91.796867
-0.447266,-0.190308,1.300781,91.430656,-457.336395,-125.854485
-0.595337,-0.271484,1.239746,81.848137,-343.078583,-157.043457
-0.684204,-0.367798,0.885986,59.387203,-233.276352,-179.443344
-0.755127,-0.340576,0.692261,46.874996,-204.650864,-165.954575
-0.884033,-0.297363,0.890259,44.860836,-200.378403,-146.42334
-0.916992,-0.310303,0.938843,37.902832,-149.230957,-136.901855
-0.936401,-0.268555,0.883423,25.634764,-92.468254,-124.694817
-1.007202,-0.365112,0.71228,20.568846,-49.133297,-100.280754
-0.923828,-0.187012,0.641479,17.089844,-35.095215,-57.189938
-0.921875,-0.226685,0.791504,0.12207,-41.198727,-52.307125
-0.891479,-0.238281,0.754761,-4.455566,-20.629881,-33.569336
-0.813965,-0.177612,0.651978,-9.521484,-4.577637,-14.770507
-0.767334,-0.121216,0.720215,-15.930175,-16.296387,-8.911133
-0.726685,-0.1698,0.821777,-13.549804,-18.615723,-9.338379
-0.694092,-0.158936,0.636841,-8.178711,3.356933,-0.915527
-0.643188,-0.135132,0.643555,-9.765625,0.427246,0.915527
-0.637939,-0.131836,0.670776,-10.19287,-1.403808,-1.281738
-0.638428,-0.126221,0.667114,-6.04248,-4.699707,-2.990722
-0.686157,-0.161133,0.728271,0.183105,-8.056641,-5.676269
-0.713867,-0.166138,0.664062,1.586914,4.333496,-4.02832
-0.690796,-0.168823,0.693359,-5.981445,8.300781,-5.249023
-0.684204,-0.12793,0.756226,-9.460449,6.652832,-1.281738
-0.69043,-0.130859,0.765747,-5.859375,5.310058,-0.549316
-0.701416,-0.15271,0.743042,-0.244141,6.408691,0.244141
-0.696045,-0.160767,0.682373,2.380371,6.835937,2.197266
-0.686279,-0.148437,0.760742,0.061035,0.366211,2.868652
-0.680542,-0.142212,0.75,0,5.371093,2.868652
-0.682007,-0.148804,0.715088,4.272461,8.483887,3.234863
-0.704346,-0.167847,0.706665,6.896972,9.338379,3.845215
-0.732422,-0.189819,0.681885,4.577637,10.009766,8.239746
-0.736328,-0.171753,0.72522,-0.610352,9.155273,12.20703
-0.748779,-0.172607,0.734131,0.549316,9.887695,18.188477
-0.699097,-0.121826,0.791626,2.258301,19.287109,14.404296
-0.760498,-0.180664,0.808838,10.31494,33.569336,15.563964
-0.774414,-0.178223,0.804565,18.493652,43.334957,22.033689
-0.853027,-0.227783,0.942017,23.742674,71.533203,30.09033
-0.892822,-0.230225,1.193726,30.456541,137.695312,44.799801
-0.933105,-0.245361,1.296021,35.644531,242.24852,59.570309
-0.996216,-0.288574,1.262451,41.137691,341.186493,85.021965
-0.88855,-0.24292,1.266479,35.644531,433.227509,110.107414
-0.823608,-0.226685,1.161865,24.475096,502.502411,118.652336
-0.695312,-0.245117,1.031982,30.822752,522.094727,129.638672
-0.480835,-0.179199,1.009521,34.118652,531.555176,130.737305
-0.293213,-0.116577,1.075928,26.489256,567.016602,114.624016
-0.219727,-0.186646,0.839844,36.132812,620.544434,114.746086
-0.036987,-0.147827,0.373413,58.410641,626.525879,124.084465
0.130859,-0.144775,0.241577,82.519524,599.975586,132.995605
0.205811,-0.151367,0.033081,75.683594,580.200195,146.606445
0.25061,-0.07373,-0.299683,59.265133,529.907227,135.253906
0.352173,-0.045654,-0.323486,63.415524,503.967255,123.535149
0.448853,0.003296,-0.325317,77.331543,479.248016,117.309563
0.336792,-0.019897,-0.757324,65.429687,479.614227,120.849602
0.383545,0.058716,-1.070801,48.46191,417.297333,111.083977
0.52124,0.210083,-0.959351,38.391113,322.509735,88.562004
0.5354,0.307739,-1.108398,40.954586,269.65332,67.443848
0.510986,0.342529,-1.366943,40.466305,209.289536,41.625973
0.428223,0.279175,-1.290527,25.634764,133.117676,10.803222
0.424683,0.24231,-1.08606,27.099607,75.683594,-8.300781
0.407715,0.179443,-1.078247,33.02002,44.006344,-20.080564
0.362061,0.094849,-1.079834,22.460936,28.991697,-20.812986
0.389282,0.090088,-0.985718,11.535644,21.423338,-12.329101
0.410889,0.088867,-0.969604,8.422852,18.981934,-6.591796
0.437134,0.080444,-0.956299,8.361816,10.437011,-6.16455
0.46167,0.079956,-0.938965,9.765625,2.197266,-7.202148
0.438965,0.053711,-0.911133,10.131835,-1.220703,-7.690429
0.437012,0.054199,-0.907349,7.324218,-0.183105,-5.065917
0.435181,0.056519,-0.873657,3.112793,1.89209,-1.708984
0.484009,0.120239,-0.919434,3.295898,4.394531,3.112793
0.498535,0.146118,-0.93335,6.652832,0.793457,1.220703
0.476807,0.123535,-0.953003,7.141113,-2.01416,-2.502441
0.485962,0.115112,-0.874756,0.549316,-5.371093,-3.90625
0.494141,0.113281,-0.870117,-2.075195,-3.173828,-2.563476
0.512573,0.135498,-0.87854,1.281738,-4.272461,-1.586914
0.505249,0.130493,-0.883911,5.615234,-7.080078,-3.234863
0.488281,0.133301,-0.897461,3.723144,-11.291503,-6.225585
0.465332,0.096802,-0.849854,-0.183105,-13.549804,-8.361816
0.472534,0.08606,-0.836304,-2.929687,-7.751464,-3.784179
0.484253,0.101318,-0.842651,-3.112793,-2.502441,2.746582
0.503784,0.154663,-0.884277,0.671387,-4.394531,5.493164
0.50769,0.164062,-0.907471,4.638672,-13.732909,-0.305176
0.503662,0.155273,-0.900024,4.821777,-20.751951,-5.798339
0.499634,0.126831,-0.875977,-0.854492,-20.568846,-5.493164
0.493042,0.11731,-0.89978,-4.089355,-23.254393,-2.868652
0.490112,0.110229,-0.907715,-2.990722,-29.96826,0.366211
0.525146,0.123535,-0.876831,-3.112793,-32.287598,3.723144
0.539429,0.132812,-0.879395,-6.469726,-35.644531,3.967285
0.543091,0.142334,-0.875854,-5.676269,-47.851559,-1.708984
0.554443,0.145996,-0.90332,-1.770019,-64.208984,-9.094238
0.541504,0.164307,-1.0896,3.417969,-104.309074,-20.751951
0.523193,0.139404,-1.170166,0.549316,-157.348633,-32.226562
0.558594,0.162842,-1.11853,-6.225585,-202.392563,-41.259762
0.591675,0.149414,-0.991211,-10.864257,-235.534653,-52.001949
0.546875,0.102173,-1.009888,-5.493164,-276.794434,-59.143063
0.596558,0.191772,-1.057495,-3.601074,-341.430634,-79.101562
0.565308,0.253906,-0.962646,-6.16455,-408.691376,-109.863274
0.371094,0.216553,-0.813232,-2.624511,-475.036591,-140.930176
0.16333,0.187378,-0.573486,-1.220703,-559.631348,-184.082016
0.134155,0.127563,-0.109741,-11.169433,-598.510742,-208.007797
-0.040649,0.005249,0.066162,-12.390136,-639.099121,-228.332504
-0.267944,-0.276123,0.298462,14.22119,-692.138611,-215.515121
-0.305908,-0.2948,0.609253,12.939452,-673.522888,-202.758774
-0.425537,-0.400757,0.969604,-23.071287,-591.125488,-190.429672
-0.475952,-0.457397,1.355835,-38.024902,-541.381836,-177.73436
-0.469482,-0.382568,1.519653,-36.621094,-443.481415,-158.569336
-0.601807,-0.547852,1.55603,-7.629394,-341.247528,-142.089844
-0.6427,-0.476318,1.438721,10.864257,-235.900864,-101.501457
-0.716797,-0.523926,1.413574,4.089355,-151.306152,-86.547844
-0.716919,-0.548584,1.339478,4.516602,-84.655754,-62.316891
-0.641724,-0.456665,1.146362,12.817382,-36.010742,-30.761717
-0.548584,-0.409546,1.06958,12.08496,-12.451171,-17.333984
-0.500977,-0.440796,1.004761,3.479004,15.075683,-10.253905
-0.407227,-0.365356,0.785645,1.831055,31.555174,5.065917
-0.30603,-0.326904,0.781128,0.610352,10.19287,5.493164
-0.252319,-0.317017,0.892456,-1.647949,-7.019042,2.929687
-0.252563,-0.322021,0.869019,-1.525879,-4.943848,0.732422
-0.274658,-0.349243,0.848267,-0.488281,-6.713867,-1.647949
-0.277954,-0.348022,0.865112,0.793457,-10.681151,-0.610352
-0.276978,-0.350464,0.923584,-1.098633,-13.793944,-0.976562
-0.258667,-0.35083,0.944946,-2.746582,-7.446289,-1.403808
-0.255127,-0.350342,0.91333,-0.915527,-2.990722,-0.061035
-0.264404,-0.361206,0.906616,1.953125,-2.563476,-0.183105
-0.272461,-0.368408,0.882202,1.770019,1.647949,-0.183105
-0.286987,-0.381226,0.860107,-1.281738,5.615234,-0.915527
-0.261963,-0.353149,0.830078,-0.549316,2.258301,0.061035
-0.256104,-0.349976,0.875854,2.075195,-8.117676,-2.13623
-0.280396,-0.368042,0.896118,2.502441,-8.789063,-4.882812
-0.302124,-0.379272,0.884277,2.197266,-7.751464,-5.798339
-0.340332,-0.39624,0.902466,0.610352,-6.225585,-6.16455
-0.338257,-0.370361,0.88855,1.342773,-2.319336,-3.601074
-0.311035,-0.366333,0.885864,3.540039,-3.845215,-3.90625
-0.315308,-0.35498,0.905151,4.150391,-7.019042,-3.173828
-0.347534,-0.383667,0.912354,4.943848,-6.469726,-4.150391
-0.362549,-0.388794,0.910889,4.455566,-1.342773,-1.159668
-0.360352,-0.385986,0.907349,4.638672,4.211426,2.624511
-0.35437,-0.375244,0.914795,6.225585,10.742187,3.784179
-0.374756,-0.39624,0.904419,7.202148,13.366698,8.728027
-0.370361,-0.394531,0.934082,8.178711,20.1416,14.160155
-0.37146,-0.397461,0.962646,9.887695,33.081055,19.348145
-0.368408,-0.407593,1.042725,10.131835,58.898922,24.536131
-0.391846,-0.445557,1.269043,7.93457,117.004387,32.714844
-0.463501,-0.537598,1.51001,12.573241,224.121078,59.448238
-0.52124,-0.572144,1.428955,17.272949,332.092255,99.792473
-0.441895,-0.523804,1.237427,5.187988,408.752411,135.009766
-0.256592,-0.446533,1.101929,-20.446775,458.618134,149.536133
-0.095093,-0.442627,1.029053,-35.400391,499.938934,164.184555
0.129639,-0.265991,0.895386,-40.588375,522.705078,167.358383
0.237915,-0.245972,0.847534,-31.555174,525.268555,158.813477
0.264648,-0.272461,0.604858,-16.540527,536.987305,169.738754
0.376831,-0.179565,0.10437,-11.901855,500.36618,165.954575
0.508179,-0.111328,-0.055054,-15.136718,439.880341,145.874023
0.633301,0.002686,-0.202515,-9.033203,385.009735,123.352043
0.711426,0.07019,-0.319092,4.943848,321.166992,88.256828
0.733398,0.021606,-0.344727,20.446775,271.789551,67.810059
0.736694,0.001587,-0.442383,31.188963,239.807114,65.246582
0.722412,0.024048,-0.481201,33.38623,209.411606,64.51416
0.734009,0.074463,-0.480225,32.226562,195.25145,62.927242
0.710815,0.057617,-0.438354,17.333984,189.69725,58.349606
0.690674,0.103882,-0.525757,7.690429,199.645981,64.63623
0.678833,0.136353,-0.645752,1.708984,199.1577,66.345215
0.676514,0.174927,-0.746948,-6.652832,188.903793,64.025879
0.660767,0.212036,-0.798584,-11.657714,171.386703,55.847164
0.605957,0.18689,-0.859619,-7.568359,147.705078,44.372555
0.606323,0.212646,-0.905762,0.915527,114.746086,34.301758
0.601074,0.214966,-0.864502,1.220703,93.566887,25.878904
0.578857,0.227661,-0.860962,1.89209,82.885735,19.897461
0.533936,0.201294,-0.957031,4.760742,72.692871,14.038085
0.522095,0.199585,-0.974609,4.638672,55.847164,11.108397
0.528687,0.206787,-0.904053,2.868652,40.710445,7.8125
0.525513,0.203491,-0.898071,1.586914,36.010742,5.249023
0.519897,0.195801,-0.915649,0.976562,31.066893,2.624511
0.528809,0.201172,-0.919678,1.831055,23.620604,0.610352
0.531738,0.206543,-0.897217,3.540039,15.86914,-2.441406
0.513916,0.185059,-0.912354,2.380371,13.244628,-4.943848
0.518799,0.189209,-0.920532,0.427246,8.728027,-5.371093
0.523804,0.189087,-0.877075,-0.12207,2.380371,-6.958007
0.513306,0.177856,-0.862549,-0.488281,2.380371,-8.117676
0.48938,0.151733,-0.870605,-1.586914,1.037598,-8.544922
0.500854,0.161743,-0.857422,-2.929687,-0.061035,-6.16455
0.518921,0.18335,-0.862183,-1.647949,-1.464844,-5.065917
0.502075,0.169556,-0.860229,-0.427246,-2.746582,-6.103515
0.48291,0.148926,-0.85022,-0.610352,-4.882812,-6.713867
0.487305,0.146729,-0.843994,-0.610352,-6.530761,-5.126953
0.515503,0.172485,-0.834106,1.770019,-9.58252,-3.417969
0.535522,0.203613,-0.840332,6.469726,-12.939452,-4.455566
0.530029,0.191528,-0.874023,10.437011,-19.592285,-9.887695
0.518555,0.172974,-0.888672,10.375976,-32.287598,-16.357422
0.517212,0.171509,-0.874268,8.728027,-47.241207,-21.057127
0.521362,0.174438,-0.894165,10.19287,-63.293453,-21.850584
0.536743,0.19043,-0.957397,13.427733,-93.994133,-24.658201
0.555054,0.203735,-0.950317,16.296387,-129.272461,-31.86035
0.56311,0.224854,-1.066528,17.883301,-167.236313,-44.494625
0.597534,0.234985,-1.186646,15.075683,-215.02684,-62.744137
0.63208,0.236816,-1.142334,9.155273,-264.404297,-75.561523
0.589722,0.247192,-1.102173,-0.793457,-314.208984,-97.900383
0.504028,0.204468,-1.109375,-10.437011,-376.708954,-116.638176
0.460571,0.302856,-1.11377,-27.465818,-454.894989,-136.962891
0.273926,0.318237,-0.577393,-24.16992,-550.354004,-180.419907
0.218628,0.099976,0.107178,28.015135,-598.632813,-198.486313
0.333862,-0.018921,0.278687,76.904297,-575.134277,-200.256332
0.227295,-0.163574,0.016113,76.599121,-559.692383,-202.636703
-0.07959,-0.24353,-0.02002,52.307125,-600.402832,-217.468246
-0.386963,-0.36145,0.460571,41.076656,-633.056641,-229.736313
-0.442871,-0.49939,1.048462,45.288082,-588.378906,-209.289536
-0.36377,-0.442749,1.257813,26.18408,-470.092743,-192.871078
-0.49353,-0.464478,1.242798,-13.305663,-374.084442,-200.439438
-0.700806,-0.651123,1.508545,-25.817869,-277.282715,-187.194809
-0.762573,-0.729614,1.546021,-3.601074,-166.809067,-125.549309
-0.741455,-0.624512,1.30603,-2.441406,-89.660637,-82.641594
-0.78418,-0.549072,1.063721,-9.277344,-67.199707,-73.242187
-0.723267,-0.537964,1.161621,-19.165039,-56.15234,-66.467285
-0.629517,-0.505859,1.140991,-12.817382,-12.939452,-39.489746
-0.560181,-0.452637,0.89856,-4.150391,31.249998,-7.873535
-0.41626,-0.375977,0.657837,-0.671387,39.367676,10.0708
-0.298828,-0.315063,0.64856,-6.103515,14.831542,13.305663
-0.241699,-0.27832,0.778931,-11.413573,-6.408691,6.774902
-0.251343,-0.289429,0.857544,-7.263183,-13.549804,-1.342773
-0.285034,-0.310059,0.857178,-0.427246,-15.563964,-7.93457
-0.298096,-0.353149,0.905151,-1.220703,-17.39502,-11.047362
-0.317627,-0.333374,0.964478,-5.126953,-13.427733,-6.225585
-0.334595,-0.350708,0.981445,-5.126953,-8.483887,-4.821777
-0.32312,-0.335205,0.927368,-0.12207,-2.319336,-1.281738
-0.333374,-0.364746,0.896851,4.455566,-0.061035,-1.708984
-0.34375,-0.37793,0.831421,4.821777,3.479004,1.098633
-0.327393,-0.365112,0.819702,0.793457,-0.732422,3.051758
-0.322876,-0.357056,0.873413,-1.159668,-7.629394,2.563476
-0.328247,-0.350586,0.901978,1.159668,-5.126953,0.793457
-0.368652,-0.386597,0.833618,5.615234,3.295898,-1.525879
-0.366577,-0.376709,0.825317,6.408691,2.319336,-0.488281
-0.36853,-0.374634,0.882446,5.065917,1.953125,-3.173828
-0.398682,-0.391479,0.911011,4.699707,2.01416,-1.342773
-0.414307,-0.395874,0.924316,7.93457,6.103515,3.112793
-0.418945,-0.415771,0.930054,10.31494,17.76123,7.080078
-0.427734,-0.418701,0.994019,10.253905,26.794432,14.404296
-0.455811,-0.44519,1.112183,10.864257,49.011227,22.094725
-0.518066,-0.498779,1.333008,13.305663,96.984856,34.362793
-0.550415,-0.541626,1.414673,21.423338,185.424789,60.668941
-0.470093,-0.462158,1.283813,24.597166,283.325195,92.224113
-0.387695,-0.462524,1.166992,12.390136,356.506317,104.125969
-0.290405,-0.482544,1.132935,0.061035,401.916473,116.149895
-0.141968,-0.417114,1.166504,-11.901855,430.480927,128.967285
-0.046997,-0.382813,1.099609,-15.99121,461.791962,137.084961
0.191528,-0.260132,0.968994,-19.40918,495.849579,137.817383
0.213989,-0.196899,1.024658,-39.123535,536.682129,107.177727
0.102417,-0.410889,0.72522,-7.8125,561.401367,111.633293
0.28418,-0.256226,0.282104,15.563964,543.457031,129.272461
0.369385,-0.148437,0.114136,22.3999,521.484375,114.501945
0.501221,-0.096191,-0.232788,23.132322,476.867645,97.167961
0.538818,-0.049561,-0.30542,17.822266,404.540985,71.899414
0.515869,-0.083862,-0.423584,28.686522,365.783661,47.546383
0.518555,-0.141724,-0.624512,44.250484,324.890106,49.072262
0.526733,-0.070557,-0.691772,48.522945,274.902344,51.879879
0.508789,-0.034058,-0.672607,47.729488,242.614731,46.44775
0.488525,-0.005859,-0.770874,48.767086,219.055161,45.532223
0.489868,0.059082,-0.892822,37.963867,195.312485,39.916992
0.465698,0.045532,-0.953247,22.766111,175.7202,38.085937
0.464111,0.105835,-1.041626,19.65332,148.864746,33.081055
0.470459,0.145752,-1.130737,26.367186,105.712883,20.629881
0.454468,0.132812,-1.169189,26.18408,63.293453,6.958007
0.442139,0.097168,-1.126465,23.376463,29.785154,-1.586914
0.456055,0.084473,-1.024902,18.920898,12.023925,-6.408691
0.464844,0.050659,-0.950195,13.061522,8.361816,-8.361816
0.462036,0.012939,-0.927124,7.995605,10.986327,-5.187988
0.474854,0.002563,-0.929932,6.958007,12.878417,-2.075195
0.500732,0.022583,-0.954468,7.019042,11.718749,1.464844
0.504395,0.032715,-0.96582,5.981445,5.493164,0.915527
0.5177,0.044556,-0.920044,6.04248,-2.868652,-2.624511
0.51709,0.03064,-0.88916,6.225585,-6.713867,-6.591796
0.513672,0.02417,-0.872803,6.469726,-8.056641,-7.080078
0.513916,0.026001,-0.882324,5.798339,-4.455566,-3.723144
0.518433,0.051514,-0.900879,3.234863,-2.624511,-0.854492
0.522949,0.061646,-0.890869,3.173828,-7.93457,-2.441406
0.530762,0.065796,-0.878784,3.967285,-12.939452,-4.516602
0.513794,0.050781,-0.883423,2.563476,-15.197753,-5.554199
0.507935,0.047241,-0.849731,1.647949,-17.333984,-3.723144
0.517944,0.057373,-0.829712,1.708984,-17.578125,-1.647949
0.531372,0.080811,-0.870728,3.417969,-19.470215,-1.281738
0.5448,0.090088,-0.889404,5.493164,-28.564451,-4.394531
0.539795,0.067505,-0.869751,4.211426,-36.743164,-7.080078
0.552246,0.064575,-0.822021,1.586914,-39.794922,-7.324218
0.56543,0.061279,-0.824463,-0.427246,-38.513184,-6.835937
0.572144,0.05481,-0.844849,0.244141,-42.785641,-6.958007
0.585449,0.052979,-0.830811,1.281738,-49.499508,-6.591796
0.587891,0.047974,-0.848389,1.037598,-55.541988,-5.615234
0.581055,0.030151,-0.859619,1.464844,-70.617676,-6.286621
0.579834,0.033325,-0.866699,2.13623,-89.904778,-5.981445
0.597046,0.040161,-0.879883,2.624511,-105.529778,-4.821777
0.649902,0.119995,-1.028076,3.601074,-127.075188,-4.638672
0.695312,0.173706,-1.069214,4.577637,-177.795395,-18.432617
0.737183,0.192139,-1.013916,10.498046,-244.995102,-41.259762
0.749878,0.196045,-0.871582,17.944336,-319.213867,-69.824219
0.732666,0.144043,-0.55603,15.502929,-374.938934,-99.731438
0.652222,0.03479,-0.399414,12.939452,-390.99118,-119.750969
0.62439,-0.003296,-0.198364,17.456055,-416.259735,-134.643555
0.615723,-0.020264,-0.066772,20.874022,-435.974091,-152.404785
0.581421,-0.123169,0.078491,25.085447,-438.781708,-163.391098
0.528687,-0.203003,0.200073,23.010252,-440.612762,-162.3535
0.458252,-0.214111,0.209839,18.554687,-450.256317,-165.405258
0.281982,-0.269409,0.304199,21.972654,-471.191376,-170.837387
0.119995,-0.402588,0.522949,26.123045,-473.937958,-159.790039
0.034912,-0.421997,0.821777,8.178711,-433.166473,-150.390625
-0.056152,-0.457764,1.016113,-14.465331,-365.173309,-142.944336
-0.133667,-0.519531,1.135376,-30.2124,-300.964355,-129.02832
-0.173218,-0.51062,1.309448,-31.433104,-223.693832,-112.853996
-0.192871,-0.52478,1.292847,-30.09033,-153.320312,-92.163078
-0.270874,-0.567871,1.255249,-23.010252,-105.041496,-70.556641
-0.26001,-0.536987,1.181152,-15.441894,-73.425293,-45.410152
-0.248657,-0.484131,1.168213,-8.117676,-54.931637,-35.095215
-0.258301,-0.504028,1.111572,-0.366211,-34.606934,-23.559568
-0.234253,-0.495239,1.004883,0.671387,-16.540527,-12.329101
-0.188354,-0.458618,0.927979,-0.061035,-8.666992,-8.789063
-0.135864,-0.428467,0.906982,-1.403808,-11.169433,-3.051758
-0.112793,-0.39502,0.917725,0.305176,-12.878417,-2.929687
-0.112793,-0.397583,0.88562,1.708984,-15.319823,-3.234863
-0.104126,-0.385254,0.873657,0.671387,-19.042969,-3.967285
-0.111206,-0.391602,0.866211,-2.380371,-24.04785,-5.798339
-0.117676,-0.385132,0.934082,-3.784179,-24.353025,-8.056641
-0.1427,-0.388794,0.986328,-6.774902,-18.676758,-8.850098
-0.17334,-0.402954,0.957397,-5.065917,-7.873535,-7.568359
-0.172607,-0.411133,0.878784,-2.197266,-4.150391,-4.272461
-0.159424,-0.396484,0.895874,-3.540039,-11.230468,-2.258301
-0.150757,-0.386719,0.939453,-3.784179,-15.197753,-2.563476
-0.171509,-0.410156,0.956055,-2.807617,-9.094238,-2.929687
-0.169922,-0.409546,0.884521,-1.525879,0.183105,-0.366211
-0.144409,-0.388428,0.866821,-0.12207,-4.333496,0.549316
-0.1427,-0.391357,0.898193,0,-11.535644,-2.624511
-0.157715,-0.403809,0.895752,-0.244141,-11.718749,-4.394531
-0.178101,-0.39209,0.943115,1.525879,-10.131835,-5.798339
-0.192871,-0.440308,0.930054,3.967285,0.12207,-8.361816
-0.181641,-0.398438,0.909546,5.187988,2.624511,-2.990722
-0.178223,-0.417847,0.874512,4.455566,-1.098633,-4.150391
-0.19873,-0.429687,0.955566,-1.159668,-7.019042,-2.319336
-0.193848,-0.414917,0.942139,-1.403808,1.464844,0
-0.199463,-0.414307,0.957764,-0.12207,6.713867,0.915527
-0.208496,-0.426636,0.967773,0.549316,14.22119,2.075195
-0.229858,-0.452148,1.079712,-0.793457,26.733397,5.981445
-0.268921,-0.487183,1.323853,-3.662109,65.612793,14.526366
-0.31897,-0.519897,1.475586,-5.615234,150.390625,30.578611
-0.343872,-0.538574,1.41394,-7.873535,252.929672,53.955074
-0.320557,-0.529785,1.305908,-16.357422,340.393036,79.040527
-0.187012,-0.452271,1.152344,-19.897461,409.362762,96.67968
0.029907,-0.355225,1.010498,-21.850584,436.096161,109.313957
0.186035,-0.329956,1.009521,-11.352538,442.321747,115.356438
0.253052,-0.296631,0.902832,11.840819,475.341766,128.234863
0.226685,-0.283691,0.797852,5.554199,513.73291,132.080078
0.253418,-0.291748,0.308838,10.925292,546.569824,142.944336
0.4375,-0.156372,-0.188843,29.602049,521.972656,158.569336
0.536011,-0.101807,-0.301636,34.057617,443.786591,150.268555
0.714844,0.034424,-0.388916,22.460936,383.17868,129.150391
0.703003,0.045898,-0.475098,11.718749,328.552216,94.299309
0.677002,-0.02478,-0.484741,27.648924,259.765625,67.932129
0.740601,-0.012573,-0.452881,29.96826,223.754868,57.983395
0.723633,-0.015259,-0.420044,22.3999,214.233383,57.800289
0.699951,0.021973,-0.425171,20.080564,218.566879,62.255856
0.638062,0.037231,-0.533813,16.235352,225.952133,67.138672
0.608887,0.073975,-0.676025,17.51709,215.209946,70.922852
0.617432,0.168945,-0.747559,25.390623,190.917953,62.133785
0.583984,0.164062,-0.852539,33.630371,163.269028,51.208492
0.5625,0.157349,-0.933105,24.536131,137.756348,44.006344
0.562012,0.211426,-0.93457,17.883301,113.342278,34.729004
0.55127,0.249268,-0.953491,17.39502,96.740715,23.681639
0.495972,0.230713,-1.029541,16.235352,78.735352,15.86914
0.487427,0.241333,-1.059326,14.770507,53.771969,9.094238
0.507812,0.268433,-1.031494,10.681151,33.691406,-0.488281
0.496948,0.237915,-0.98999,6.286621,21.911619,-7.873535
0.493286,0.216797,-0.96167,2.868652,15.563964,-10.925292
0.501465,0.209229,-0.964478,2.075195,9.765625,-12.268065
0.506348,0.189941,-0.959839,1.037598,3.173828,-12.512206
0.510498,0.180786,-0.91626,-1.037598,-1.770019,-13.183593
0.516113,0.16748,-0.860718,-1.403808,-2.563476,-13.610839
0.512329,0.158691,-0.878296,-1.464844,-1.708984,-13.610839
0.501099,0.152222,-0.875977,-1.403808,-5.004883,-13.793944
0.496704,0.152466,-0.854858,0.183105,-8.728027,-13.671874
0.496826,0.14502,-0.811035,2.01416,-9.765625,-13.305663
0.489746,0.126587,-0.822266,0.915527,-5.310058,-12.08496
0.490234,0.124146,-0.836426,-1.708984,-1.525879,-9.277344
0.489136,0.127563,-0.829712,-2.746582,-0.061035,-6.347656
0.485962,0.145386,-0.853027,-3.234863,-1.220703,-4.699707
0.476196,0.12561,-0.848999,-1.403808,-7.507324,-5.981445
0.49585,0.139648,-0.812622,1.464844,-11.474608,-5.065917
0.501831,0.135864,-0.814453,3.112793,-8.300781,-3.723144
0.48291,0.126587,-0.857056,2.807617,-4.150391,-0.732422
0.489624,0.147949,-0.912598,-0.610352,-3.90625,3.784179
0.499634,0.171021,-0.893311,-3.723144,-10.742187,4.211426
0.509399,0.184204,-0.896118,-3.112793,-16.601562,0.976562
0.515259,0.164795,-0.927856,-1.770019,-26.611326,-4.760742
0.522339,0.163696,-0.955811,-3.356933,-42.236324,-9.155273
0.531738,0.16394,-0.968628,-5.310058,-65.612793,-14.282226
0.531982,0.159912,-0.960815,-4.333496,-91.979973,-19.287109
0.528931,0.144287,-1.005371,-3.417969,-116.027824,-24.29199
0.540771,0.142578,-1.07373,-8.117676,-141.296387,-28.137205
0.588501,0.156738,-1.072754,-21.057127,-174.07225,-31.433104
0.610352,0.13147,-0.957642,-43.457027,-204.833969,-34.973145
0.684082,0.195923,-0.870972,-47.607418,-250.366196,-38.94043
0.707886,0.116699,-0.729492,-33.996582,-308.105469,-55.847164
0.730835,0.105957,-0.673096,-25.390623,-337.341278,-61.279293
0.653809,0.033081,-0.56604,-28.625486,-355.651825,-70.19043
0.506836,-0.001221,-0.433838,-44.43359,-389.221161,-76.11084
0.432739,0.061401,-0.199341,-49.804684,-447.265594,-82.702629
0.423462,0.063354,-0.075562,-23.254393,-501.281708,-96.92382
0.394287,0.077271,-0.044922,-11.657714,-539.733887,-108.764641
0.164062,0.053467,0.147095,-29.541014,-576.23291,-132.385254
-0.201538,-0.182861,0.480347,-25.085447,-602.661133,-141.235352
-0.322144,-0.357788,0.972778,-6.835937,-580.627441,-109.436028
-0.152222,-0.272217,1.30896,-12.817382,-485.412567,-75.134277
-0.101196,-0.146484,1.482666,-41.076656,-374.999969,-75.561523
-0.184326,-0.156006,1.527222,-49.987789,-273.864746,-91.918938
-0.268433,-0.219482,1.452637,-32.165527,-206.420883,-95.520012
-0.310791,-0.226318,1.478394,-17.578125,-153.869629,-92.8955
-0.317627,-0.254395,1.407227,-12.878417,-99.731438,-81.481926
-0.373901,-0.299683,1.360474,-6.958007,-52.551266,-60.302731
-0.332764,-0.30835,1.312134,4.150391,-7.690429,-27.343748
-0.252563,-0.250732,1.140015,12.268065,19.958496,-1.953125
-0.160278,-0.179932,1.013794,12.573241,25.268553,5.615234
-0.137573,-0.201782,0.907349,8.728027,22.583006,5.859375
-0.07312,-0.162476,0.871704,4.638672,9.887695,4.272461
-0.056274,-0.168945,0.90686,-0.061035,0.183105,-1.464844
-0.06543,-0.185913,0.950073,-0.976562,-5.187988,-0.183105
-0.050659,-0.161743,1.006104,-2.380371,-2.01416,-0.427246
-0.092896,-0.169678,0.998047,-2.563476,-1.342773,-2.929687
-0.086182,-0.188477,1.008667,-0.793457,-2.746582,0.366211
-0.07605,-0.183838,1.045654,-2.075195,5.432128,5.065917
-0.057739,-0.152466,0.979736,-1.708984,5.92041,6.896972
-0.052246,-0.147217,0.986084,-0.915527,-2.563476,3.112793
-0.079956,-0.19043,0.990845,0.915527,-7.141113,-1.770019
-0.07373,-0.187744,0.968018,1.586914,-7.995605,0.061035
-0.091553,-0.193848,1.026245,-2.624511,-11.108397,0.488281
-0.189453,-0.235718,1.128174,-3.662109,-2.075195,3.234863
-0.36145,-0.339722,1.36084,10.620116,20.690916,12.20703
-0.466064,-0.427612,1.810425,42.480465,74.279785,39.428711
-0.622925,-0.541504,2.276367,75.866699,192.749008,89.172356
-0.890015,-0.508789,1.948853,112.976067,375.549286,171.081528
-0.64978,-0.256104,0.910522,140.50293,492.614716,253.8452
0.449829,0.430664,-0.057617,134.58252,497.558563,292.541504
1.057129,0.65918,-1.391968,61.340328,425.659149,206.237778
1.272583,0.82312,-2.322388,74.768066,114.44091,67.199707
0.788208,0.94751,-1.186279,15.441894,-271.42334,-107.971184
-0.029907,-0.039429,0.306152,-142.51709,-440.734833,-291.015625
-0.745239,-0.552002,1.255615,-193.115219,-426.635712,-287.353516
-1.225464,-0.976929,3.025269,-141.540527,-421.203583,-236.57225
-0.649414,-1.055786,3.999878,-18.981934,-209.777817,-90.332024
-0.700073,-0.417969,2.90625,67.016602,213.073715,100.402824
-0.843506,-0.388306,1.34436,74.035645,438.659637,154.968262
-0.195679,-0.140015,0.15979,104.553215,464.599579,203.247055
1.076538,0.577881,-1.34314,183.044418,388.97702,232.238754
1.637207,1.185669,-2.358521,187.927231,109.924309,119.99511
0.683472,0.62915,-1.355225,-19.775391,-250.915512,-117.309563
-0.225098,-0.41394,0.035522,-179.565414,-428.283661,-240.966782
-0.699463,-0.427979,1.094482,-182.556137,-440.917938,-188.354477
-0.997803,-0.645996,2.776001,-148.803711,-433.349579,-156.12793
-0.567627,-0.733765,3.946777,-61.95068,-249.450668,-75.561523
-0.511597,-0.342285,2.865356,9.643555,172.790512,57.006832
-0.723267,-0.268555,1.354126,11.230468,427.79538,93.811028
-0.580078,-0.311646,0.914307,25.085447,428.527802,99.731438
0.159302,-0.114258,0.344238,86.181633,361.206024,135.437012
1.231689,0.26416,-0.860962,165.527328,245.300278,145.935059
1.442627,0.738037,-2.048828,110.717766,-60.791012,34.057617
0.537231,0.436401,-1.206787,-96.374504,-357.116669,-159.240723
-0.196289,-0.394653,0.402466,-167.480453,-431.579559,-180.297836
-0.80188,-0.486328,1.773804,-111.206047,-418.640106,-135.681152
-0.723755,-0.606934,3.400757,-36.193848,-266.418457,-80.13916
-0.325195,-0.415039,3.602173,-0.366211,140.380859,7.873535
-0.654419,-0.25061,2.080688,-2.01416,407.714813,34.790039
-0.695312,-0.464844,0.932495,33.691406,425.598114,66.711426
0.075684,-0.177612,0.300537,102.416985,348.876923,129.455566
1.131958,0.251343,-0.672974,159.179687,242.37059,139.770508
1.459106,0.584351,-1.897705,121.398918,-24.475096,55.114742
0.612671,0.446899,-1.240234,-68.54248,-325.134247,-120.422356
-0.176758,-0.359985,0.364746,-149.536133,-408.50827,-164.733871
-0.726685,-0.549683,1.804565,-91.125481,-399.169891,-117.492668
-0.610596,-0.551025,3.364502,-29.785154,-241.760239,-56.945797
-0.286621,-0.290527,3.637207,-10.620116,148.925781,4.455566
-0.591797,-0.285034,2.136841,-2.685547,409.606903,33.325195
-0.610596,-0.402222,0.807495,47.119137,430.664032,73.913574
0.260132,-0.177124,-0.193237,169.006332,346.069305,150.512695
1.716431,0.526855,-1.853394,236.511215,278.503418,175.353989
1.273071,0.98291,-2.292358,144.287109,-9.155273,69.152832
-0.070435,-0.150269,-0.377441,-149.719238,-361.999481,-160.217285
-0.505615,-0.574341,1.19397,-177.673325,-437.561005,-168.701157
-0.78064,-0.404419,2.667236,-118.652336,-380.004852,-114.929192
-0.546509,-0.416382,3.635986,-83.007805,-201.17186,-92.8955
-0.190796,-0.274414,2.821289,2.319336,140.258789,-2.746582
-0.304321,-0.26001,1.123413,14.343261,357.177704,59.509274
-0.012085,-0.318848,0.211426,46.874996,334.228485,82.336418
0.533936,-0.112305,0.098633,68.359375,221.069321,102.783195
0.694092,0.009888,0.177979,10.375976,154.23584,75.195312
0.572632,-0.084961,0.446411,-45.288082,102.966301,24.902342
0.537598,-0.172363,0.641602,-39.855957,67.260742,4.516602
0.617554,-0.151123,0.568604,-15.808105,47.119137,13.244628
0.655151,-0.07312,0.542114,-18.615723,13.244628,23.315428
0.664551,-0.015991,0.707764,-28.07617,-22.27783,24.475096
0.653076,0.117798,0.745483,-51.757809,-33.38623,16.479492
0.699341,0.315796,0.688721,-77.270508,-50.842281,-19.348145
0.692383,0.531738,0.622559,-153.076172,-84.655754,-105.895988
1.000488,0.894043,0.678345,-243.896469,-125.122063,-250.976547
0.44043,0.645874,0.704102,-317.871094,-154.47998,-395.568817
-0.630249,0.000732,1.796631,-74.707031,-239.929184,-411.254852
-0.018677,-0.438843,2.08606,-64.453125,-108.093254,-387.390106
0.010498,-1.327515,1.320557,-26.977537,94.360344,-242.004379
0.362915,-1.098022,0.957642,128.295898,169.128403,79.345703
0.33313,-0.92395,0.99292,298.034668,184.631332,367.004364
-0.058472,-0.733887,1.029297,447.998016,140.991211,594.604492
-0.234863,0.413696,0.858887,475.707977,69.824219,712.524353
0.240112,1.381226,0.603638,304.321289,6.469726,495.727509
0.622803,1.591675,0.293701,-21.179197,-38.208008,65.246582
0.541138,0.72522,0.834595,-194.091782,-104.919426,-327.209442
0.449951,0.239624,1.18396,-202.941879,-76.293945,-513.183594
0.314087,-0.321411,1.266846,-252.014145,-9.216309,-546.264648
0.264893,-0.628418,0.947754,-270.996094,-16.052246,-471.923798
0.363403,-1.124146,1.074585,-179.382309,-10.620116,-270.080566
0.471924,-1.574341,1.137207,25.634764,48.645016,44.31152
0.361206,-1.117676,1.147217,157.043457,99.975578,341.003387
0.003174,-0.515137,0.985229,233.825668,104.431145,487.915009
-0.143311,0.453735,0.523804,159.179687,42.114254,434.265106
0.286987,1.340088,0.310425,-102.783195,-60.974117,111.816399
0.666504,1.105469,0.614868,-254.516586,-143.249512,-241.210922
0.624512,0.340576,1.326294,-210.99852,-106.994621,-394.65329
0.485596,-0.066162,1.287231,-136.474609,-13.427733,-423.767059
0.477417,-0.780518,0.967163,-82.031242,8.300781,-320.251465
0.572021,-1.372314,1.040161,46.081539,27.9541,-21.606443
0.504272,-1.134155,1.166992,219.787582,74.645996,303.588867
0.084595,-0.570801,1.000732,332.763641,81.359856,500.976532
-0.139893,0.5177,0.616333,218.200668,9.033203,449.523895
0.28125,1.412231,0.451538,-45.227047,-79.650879,100.83007
0.5354,1.060791,0.650635,-199.218735,-135.192871,-257.385254
0.534912,0.439941,1.156738,-189.208969,-118.34716,-424.438446
0.452881,0.092896,1.247192,-172.851547,-52.24609,-501.098602
0.462158,-0.886353,1.193237,-140.991211,-18.493652,-403.991669
0.57666,-1.655029,1.312012,-1.770019,49.377438,-60.05859
0.341675,-1.177124,1.265381,83.618156,92.285149,139.770508
0.092773,-0.495972,1.120117,203.06395,141.784668,408.3862
-0.186646,0.006592,0.691528,245.849594,139.465332,518.737793
-0.013428,1.12854,0.316284,137.634277,56.457516,463.623016
0.516724,1.649658,0.313599,-130.737305,-68.725586,100.46386
0.545288,0.816162,0.816772,-264.831543,-165.039047,-295.166016
0.49939,0.12915,1.193604,-157.897949,-144.714355,-445.983856
0.530518,-0.595947,1.103394,-107.543938,-72.08252,-442.810028
0.673218,-1.437378,1.307251,-64.025879,-47.180172,-273.376465
0.479126,-1.194458,1.532471,48.583981,30.151365,72.44873
0.115723,-0.488037,1.201782,163.513168,140.075684,356.750458
-0.144775,0.363037,0.544556,197.753891,161.437973,474.060028
0.158936,1.267456,0.203369,75.683594,59.265133,353.942841
0.518311,1.175659,0.467163,-156.555176,-85.754387,3.662109
0.577515,0.600586,0.939941,-221.801743,-159.484863,-270.263672
0.605591,0.124146,1.045776,-115.844719,-127.746574,-371.032684
0.603271,-0.671143,1.070435,-54.077145,-81.542961,-349.975555
0.646851,-1.216309,1.432739,1.342773,-44.43359,-154.052734
0.444824,-0.809204,1.410767,67.565918,69.091797,148.55957
0.207275,-0.319336,0.975586,172.424301,159.973145,359.74118
-0.081299,0.397827,0.52124,236.145004,147.888184,454.894989
0.154541,1.324707,0.29834,96.67968,49.987789,328.735321
0.505493,1.153687,0.447021,-161.804184,-73.425293,-35.400391
0.493896,0.579834,0.85083,-244.201645,-156.311035,-298.76709
0.449707,0.164185,0.923462,-138.793945,-156.12793,-391.723602
0.52124,-0.403442,1.056641,-86.486809,-135.375977,-375.732391
0.630249,-1.072266,1.52002,-50.354,-101.501457,-228.942856
0.509399,-0.970459,1.661621,46.508785,21.362303,54.26025
0.304077,-0.362915,1.134033,138.427734,167.053207,308.59375
0.054932,-0.014526,0.745605,223.632797,191.3452,429.992645
-0.049438,0.324951,0.629395,181.274399,131.286621,442.932098
0.070923,1.338013,0.310547,-42.053219,27.099607,189.147934
0.477173,1.329712,0.126099,-263.244629,-134.033203,-185.241684
0.440918,0.613403,0.748657,-186.584457,-226.074203,-364.318817
0.457886,0.147461,1.052612,-65.185547,-190.368637,-388.73288
0.509399,-0.348267,1.154907,-63.049313,-144.104004,-308.898926
0.586426,-1.013794,1.550537,-4.211426,-61.523434,-88.562004
0.500366,-0.887085,1.760864,79.528809,114.379875,206.603989
0.295044,-0.256348,1.28894,152.099609,234.619125,371.826141
-0.02417,0.097778,0.704224,208.679184,220.70311,439.941376
-0.094482,1.1521,0.150513,60.363766,87.890617,284.301758
0.347412,1.473755,0.070923,-187.255844,-99.914543,-100.952141
0.54248,0.643433,0.693848,-189.331039,-198.913559,-313.720703
0.494263,0.225952,1.056396,-68.603516,-165.771469,-340.820282
0.488281,-0.050171,0.969849,-35.522461,-132.385254,-317.382812
0.554687,-0.770142,1.296753,-1.525879,-92.712395,-161.560043
0.612305,-0.936646,1.758789,53.161617,50.415035,111.206047
0.419312,-0.400269,1.50708,101.318352,206.298813,304.56543
0.117432,-0.055054,0.976807,157.592773,239.318832,394.409149
-0.131348,0.766113,0.307373,84.228508,165.100082,338.561981
0.213501,1.485352,-0.202393,-124.328606,-30.578611,9.460449
0.446411,0.764893,0.412842,-179.504379,-194.641098,-247.436508
0.521729,0.383667,0.941528,-136.535645,-212.829575,-290.039062
0.537598,0.219727,0.938843,-51.452633,-189.086899,-328.002899
0.542236,-0.493164,1.312012,-63.171383,-164.794907,-314.758301
0.627319,-0.988403,1.773926,-12.512206,-82.275383,-131.04248
0.449341,-0.539429,1.668579,62.561031,103.515617,145.812988
0.231812,-0.166748,1.08667,117.980949,252.136215,321.411102
-0.078125,0.237427,0.549927,178.100571,264.099121,415.283173
-0.013184,1.311157,-0.038574,99.792473,167.541489,370.788544
0.358154,1.382446,-0.08252,-130.615234,-37.29248,31.677244
0.430298,0.630005,0.647827,-200.317368,-225.891098,-263.916016
0.467651,0.4198,0.946533,-86.85302,-260.314941,-348.327606
0.452881,0.141357,1.104736,-63.84277,-230.468735,-380.737274
0.430786,-0.569092,1.597534,-147.521973,-197.570786,-332.580536
0.557251,-1.190552,2.024414,-12.451171,-72.998047,-109.680168
0.385864,-0.387207,1.706665,114.624016,177.124008,218.994125
0.005859,-0.004639,0.959717,187.56102,330.932587,377.01413
-0.245605,0.598877,0.205078,201.354965,295.288086,446.533173
0.087646,1.648315,-0.355957,24.719236,115.173332,296.142578
0.465454,1.099731,0.154541,-192.260727,-142.822266,-93.933098
0.477417,0.411743,0.997803,-139.892578,-271.179199,-288.879395
0.507202,0.342773,1.062988,-29.724119,-224.060043,-322.143524
0.503784,-0.27478,1.291016,-49.255367,-173.583969,-337.280243
0.585449,-1.082031,1.911743,-29.846189,-105.773918,-187.255844
0.463013,-0.609009,1.94043,53.161617,104.003899,127.746574
0.157349,-0.085571,1.09729,141.906738,315.185547,332.946747
-0.201416,0.319336,0.331543,243.774399,325.500458,428.527802
-0.022827,1.364868,-0.148804,131.225586,173.034653,374.389618
0.409668,1.373657,-0.18457,-134.765625,-47.607418,34.179687
0.454834,0.647827,0.567505,-201.354965,-250.610336,-247.863754
0.473633,0.394897,1.007202,-72.631836,-292.175293,-326.721161
0.557251,-0.013916,1.351196,-47.912594,-247.680649,-350.769012
0.597534,-0.929443,1.884644,-56.945797,-159.484863,-258.117676
0.55542,-1.049927,2.082153,27.282713,43.090816,38.635254
0.354126,-0.390259,1.789307,90.026848,285.461426,284.362793
0.075684,-0.016602,0.963501,194.213852,362.243622,391.479462
-0.189697,0.478027,0.271851,151.489258,265.563965,413.940399
0.007813,1.486816,-0.37207,-82.702629,52.551266,157.958984
0.391235,1.160889,-0.303955,-182.189926,-212.463364,-166.442856
0.396362,0.591797,0.677734,-74.34082,-316.101074,-283.508301
0.466919,0.480957,1.008423,-21.911619,-285.461426,-341.85788
0.533325,-0.030518,1.421021,-72.631836,-233.215317,-329.589813
0.591675,-0.840698,1.937988,-17.76123,-84.533684,-128.234863
0.498169,-0.74292,2.041016,75.866699,163.146957,170.715317
0.283447,-0.039673,1.415283,132.507324,342.468231,323.120087
-0.060791,0.052856,0.682739,243.041977,343.383759,408.081024
-0.204834,0.690918,0.102539,173.767075,200.439438,397.888153
0.108398,1.627441,-0.259521,-60.241695,-24.475096,64.880371
0.45874,1.076172,0.086914,-146.66748,-236.022934,-247.070297
0.313965,0.742798,0.683472,-71.655273,-307.495117,-388.85495
0.335083,0.470459,1.026489,-105.468742,-304.077148,-474.548309
0.436523,-0.160522,1.605225,-191.162094,-238.2202,-430.297821
0.52356,-1.423096,2.080688,-21.362303,-70.739746,-147.827148
0.414917,-0.929321,2.035278,149.841309,201.599106,230.773911
0.077759,-0.092529,1.169556,276.672363,331.787079,398.986786
-0.219849,0.06897,0.520996,321.838348,318.603516,450.805634
-0.182129,0.927002,0.175415,316.345215,192.932114,489.135712
0.327393,1.629639,0.181274,85.388176,19.53125,238.037094
0.515381,0.946167,0.531006,-92.8955,-116.943352,-136.962891
0.425903,0.580688,0.884277,-80.93261,-173.95018,-332.031219
0.401978,0.067505,1.053223,-72.265625,-154.11377,-433.471649
0.535522,-0.866089,1.256348,-98.327629,-126.647942,-398.986786
0.643188,-1.335083,1.593628,-30.151365,-72.998047,-154.846191
0.477661,-0.69397,1.569824,77.758789,57.189938,165.588364
0.236206,-0.397705,1.128174,205.444321,168.457016,355.957001
-0.254639,0.016113,0.83252,334.28952,185.791,484.49704
-0.127319,1.311279,0.307251,260.437012,113.586418,454.162567
0.381226,1.703491,0.186157,-62.622066,-31.738279,74.462891
0.401245,0.625,0.865112,-226.074203,-165.893539,-328.857391
0.340088,0.023315,1.331299,-170.227036,-174.499496,-454.894989
0.474243,-0.460083,1.027588,-126.953117,-96.80175,-430.175751
0.647827,-1.290405,1.30896,-77.941895,-80.01709,-274.047852
0.565796,-1.1427,1.687744,26.977537,-1.220703,45.349117
0.266602,-0.537476,1.24646,142.51709,144.348145,320.373535
-0.070312,-0.175659,0.911865,266.296387,189.45311,465.698212
-0.270508,0.863037,0.405029,300.720215,148.193359,502.746552
0.236572,1.789429,0.190918,50.903316,11.596679,224.304184
0.41272,1.012695,0.662109,-213.623032,-130.981445,-230.4077
0.192505,0.445312,1.071899,-260.192871,-189.514145,-463.378876
0.255859,-0.105591,1.143555,-220.520004,-179.504379,-539.367676
0.522217,-0.982544,1.610596,-228.51561,-156.799316,-458.862274
0.651123,-1.757935,1.903442,-91.00341,-53.588863,-177.9785
0.272827,-0.891724,1.549438,123.962395,144.836426,234.130844
-0.08728,-0.27771,0.928467,288.085937,256.164551,476.623505
-0.460327,0.301758,0.527466,368.469208,203.979477,580.383301
-0.078003,1.828735,0.105103,185.66893,67.321777,457.641571
0.261108,2.151123,0.043579,-171.691879,-105.712883,-38.574219
0.345703,1.180908,0.588135,-296.447754,-243.652328,-445.67868
0.19873,0.165039,1.314453,-169.189438,-219.848618,-531.433105
0.417847,-0.434448,1.32605,-128.78418,-135.314941,-456.970184
0.602905,-1.441895,1.601074,-59.387203,-65.368652,-188.110336
0.524536,-1.332275,1.907227,60.363766,109.741203,206.176743
0.179565,-0.446777,1.344971,190.490707,245.178207,427.91745
-0.127808,-0.161255,0.782471,339.721649,228.63768,539.794922
-0.37085,0.720337,0.390747,254.333481,107.421867,493.957489
0.141479,1.987793,0.138672,-65.795898,-49.621578,75.744629
0.460693,1.216064,0.528198,-231.628403,-170.654282,-337.707489
0.242798,0.422974,1.008057,-182.556137,-191.040024,-468.078583
0.245972,0.071045,1.005493,-140.075684,-168.334946,-489.868134
0.512085,-0.985962,1.368652,-95.581047,-143.249512,-335.082977
0.667358,-1.515259,2.005981,13.427733,2.868652,24.841307
0.332764,-0.720337,1.664551,111.267082,194.396957,316.711426
0.076782,-0.231567,0.939941,224.60936,237.243637,447.082489
-0.148804,0.021118,0.702515,303.405762,177.673325,516.723633
-0.202148,1.062866,0.432617,132.080078,76.049805,371.582001
0.315674,1.744385,0.194824,-155.334473,-60.668941,-54.26025
0.428223,0.983765,0.554932,-247.497543,-179.199203,-367.30954
0.13147,0.557007,0.892212,-174.194321,-209.899887,-495.178192
0.221802,0.028931,0.927124,-162.780746,-212.585434,-526.062012
0.448242,-0.819824,1.540039,-193.847641,-219.299301,-465.820282
0.577271,-1.446655,1.981689,-102.416985,-122.497551,-213.989243
0.374268,-0.753052,1.74707,64.025879,81.787102,138.000488
0.123169,-0.267456,1.137817,170.593246,236.206039,353.271454
-0.110229,-0.158203,0.795166,307.922363,249.877914,477.783173
-0.337891,0.767822,0.533203,342.834442,171.874985,546.081543
0.204102,1.84082,0.203857,83.435051,52.673336,305.236816
0.452637,1.233154,0.35144,-203.918442,-88.317863,-149.658203
0.209106,0.623901,0.924683,-242.858871,-203.369125,-416.809052
0.190308,0.194336,0.948853,-190.124496,-216.552719,-520.202637
0.304932,-0.787964,1.387329,-184.814438,-220.886215,-497.192352
0.547241,-1.383179,1.975098,-105.285637,-143.432617,-254.333481
0.451294,-0.744263,1.801392,28.564451,57.128902,94.482414
0.186157,-0.225342,1.10791,122.558586,225.036606,300.65918
-0.120361,-0.127319,0.644531,269.65332,254.699692,414.794891
-0.200317,0.784546,0.286011,326.538055,173.400864,479.553192
0.292969,1.538696,0.3573,89.11132,26.672361,257.69043
0.585815,0.89624,0.588501,-159.790039,-80.566399,-116.638176
0.491577,0.330078,0.992676,-167.480453,-135.620117,-298.522949
0.285034,0.082886,1.011475,-109.008781,-120.056145,-344.055145
0.385376,-0.463745,0.976074,-100.158684,-116.45507,-317.321777
0.539185,-0.698608,1.372925,-44.738766,-121.643059,-167.419418
0.481445,-0.143066,1.229248,13.671874,-45.166012,13.488769
0.328979,0.32605,0.859497,27.404783,0.427246,58.28857
0.229614,0.181641,0.910156,16.052246,-22.949217,-0.061035
0.283813,0.058594,1.003052,9.338379,-24.963377,-32.653809
0.375122,-0.038452,1.009399,15.014647,-8.056641,-40.588375
0.394531,-0.162354,0.976562,31.005857,10.559081,-19.40918
0.360229,-0.115479,0.918335,39.489746,25.756834,28.808592
0.390381,-0.011597,0.937744,45.959469,25.634764,61.828609
0.433472,-0.001099,0.994141,51.086422,24.658201,66.894531
0.452148,-0.004761,1.025513,61.279293,39.18457,69.824219
0.384033,0.116211,0.855835,58.776852,40.893551,61.95068
0.381348,0.090454,0.85144,41.381832,20.568846,32.348633
0.419678,-0.115723,1.052246,46.936031,21.850584,31.799314
0.466431,-0.197266,1.149292,71.289062,46.020504,58.776852
0.511108,-0.220215,1.154053,79.467773,73.303223,92.65136
0.525146,-0.244751,1.21582,72.570801,107.116692,134.338379
0.5271,-0.194092,1.219849,72.937012,145.080566,175.353989
0.414673,-0.112183,1.194214,62.561031,171.081528,194.946274
0.385376,-0.002563,1.143555,44.250484,195.190414,189.208969
0.386108,0.028687,1.036133,41.564938,224.182114,172.424301
0.415039,0.087402,0.909424,32.592773,236.816391,141.906738
0.465698,0.086426,0.911011,3.295898,236.999496,97.290031
0.521484,0.167725,0.7323,-24.29199,236.206039,60.791012
0.670776,0.127563,0.57605,51.879879,243.225082,67.504883
0.562012,-0.225708,0.484253,150.45166,282.897949,190.612778
0.534668,0.121948,0.06958,240.966782,267.39502,309.692383
0.71582,0.643066,0.103638,200.134262,169.006332,301.025391
0.756104,0.710449,0.842407,-6.103515,151.184082,189.819321
0.535278,0.277954,1.02478,-132.141113,273.925781,122.375481
0.273315,0.192383,0.472656,-134.887695,419.433563,153.503418
0.315063,0.59375,-0.302734,-151.977539,460.510223,154.663086
0.317261,0.352905,-0.799072,-184.448227,451.599091,91.491692
0.36499,0.054077,-0.612915,-165.527328,355.346649,61.828609
0.340698,0.331055,-0.370117,-195.678696,299.072266,81.115715
0.291016,0.477661,-0.696411,-161.499008,313.842773,69.824219
0.231323,0.531006,-1.265869,-66.28418,315.429687,70.373535
0.24585,0.576172,-1.440186,-17.944336,242.24852,63.415524
0.284058,0.672485,-1.029541,-7.263183,142.39502,42.297359
0.24939,0.577759,-0.84375,0.732422,117.675774,13.85498
0.198486,0.544067,-1.077393,-8.666992,133.544922,7.568359
0.174683,0.561157,-1.300659,-38.208008,118.408195,11.230468
0.186768,0.547974,-1.237183,-51.208492,74.035645,1.586914
0.214844,0.622314,-0.954102,-21.850584,39.0625,-21.057127
0.20813,0.4375,-0.886597,-28.137205,36.254883,-46.936031
0.212891,0.497192,-0.882202,-15.136718,38.696289,-46.936031
0.193848,0.350586,-0.901001,-12.145995,46.630856,-57.739254
0.238037,0.476685,-1.029297,-56.091305,43.640133,-46.874996
0.191284,0.562622,-0.831543,-19.775391,24.536131,-65.368652
0.178223,0.32312,-0.866333,36.071777,50.842281,-93.933098
0.086548,0.329346,-1.043823,40.893551,48.583981,-85.266106
0.243896,0.252686,-0.828125,19.470215,35.766602,-82.824699
0.220703,0.459229,-0.981079,-57.189938,57.312008,-52.856441
0.105469,0.46814,-1.005493,-13.122558,52.856441,-69.946289
0.195923,0.21875,-1.151123,29.785154,22.949217,-90.576164
0.301758,0.437134,-0.970581,-14.831542,-51.757809,-60.668941
0.178345,0.481445,-0.684326,19.65332,-82.580559,-72.753906
0.137451,0.06311,-0.825195,90.515129,-15.502929,-82.397453
0.142578,0.214966,-1.18689,23.010252,19.348145,-18.920898
0.165649,0.439453,-1.153809,-14.587401,-27.038572,-0.305176
0.239502,0.432861,-1.152588,-19.165039,-67.687988,-20.996092
0.245239,0.419312,-1.192017,-98.144524,-109.680168,-29.357908
0.208984,0.432007,-1.285156,-142.456055,-165.954575,-36.254883
0.210083,0.386963,-1.46875,-144.65332,-232.788071,-48.400875
0.172363,0.310059,-1.477539,-129.516602,-316.711426,-58.349606
0.19812,0.321655,-1.423584,-85.20507,-399.597137,-68.603516
0.231934,0.425781,-1.311035,-30.578611,-490.41745,-106.50634
0.192017,0.499268,-0.981201,-51.330563,-588.806152,-167.480453
0.137085,0.349243,-0.532227,-111.022942,-657.531677,-205.627426
0.134399,0.015747,-0.019165,-149.475098,-675.964294,-192.016586
0.182495,-0.209839,0.347656,-167.297348,-615.05127,-128.417969
0.186523,-0.303101,0.607544,-117.248528,-540.649414,-62.744137
0.197388,-0.151611,0.875977,-86.608879,-447.143524,-23.010252
0.255249,-0.039673,0.926758,-83.19091,-376.525848,-22.583006
0.387573,-0.051514,0.862915,-76.23291,-346.801727,-18.371582
0.373535,-0.018555,0.922852,-74.829102,-304.382324,-15.624999
0.109497,-0.007446,0.793823,-78.186035,-273.193359,-21.179197
0.020752,0.078735,0.869385,-88.500969,-293.518066,-37.231445
0.102173,0.031128,1.105347,-90.820305,-290.405273,-44.006344
0.145142,0.015991,1.121826,-74.829102,-255.615219,-26.794432
0.080933,0.141113,1.137939,-84.411613,-226.62352,-30.822752
-0.107666,0.146118,1.179443,-90.270988,-186.462387,-49.560543
-0.237305,0.189575,1.145142,-75.927734,-153.320312,-60.546871
-0.18457,0.192383,1.147583,-69.702148,-137.634277,-68.664551
-0.114502,0.098022,1.105225,-72.44873,-140.075684,-58.410641
-0.31189,0.270386,1.282227,-67.932129,-134.58252,-31.921385
-0.394897,0.317749,1.164307,-50.23193,-85.083,-42.175289
-0.314087,0.167236,1.059082,-40.954586,-62.561031,-49.743649
-0.309204,0.275269,1.146973,-32.226562,-61.218258,-25.695799
-0.34021,0.379395,1.046143,-18.371582,-35.766602,-26.977537
-0.246826,0.264893,1.01416,-13.916015,-14.160155,-56.640621
-0.273071,0.228394,0.945068,-17.944336,-8.361816,-52.36816
-0.298218,0.379028,0.934814,-9.155273,-6.225585,-48.767086
-0.211426,0.308472,0.88208,-28.503416,-0.488281,-76.538086
-0.178833,0.098389,0.938354,-21.606443,-8.422852,-79.89502
-0.235107,0.334595,1.004883,23.437498,-1.831055,-43.151852
-0.211304,0.334106,1.014526,29.724119,20.202635,-57.006832
-0.198242,0.308838,0.947632,23.559568,38.635254,-67.871094
-0.175781,0.229004,0.999146,25.024412,41.076656,-69.580078
-0.114868,0.197144,0.951904,33.508301,46.874996,-51.757809
-0.064453,0.311646,0.911255,33.203125,50.354,-40.64941
-0.041382,0.199341,1.05188,23.376463,53.710934,-57.556149
-0.021118,0.138062,1.083252,28.991697,68.969727,-46.081539
-0.026489,0.21521,1.045532,32.226562,80.200195,-24.108885
0.011353,0.263672,1.045166,36.804199,70.007324,-11.474608
0.029175,0.202759,1.110596,45.837399,64.51416,-12.512206
0.029663,0.093994,1.14917,57.373043,83.007805,-3.967285
0.060425,0.096436,1.197388,51.696774,117.675774,23.620604
0.114502,0.293945,1.307373,48.828121,153.686523,40.100098
0.06665,0.352905,1.428589,57.617184,188.171371,16.357422
-0.055786,0.207764,1.414551,67.749023,246.826157,-8.666992
0.018921,0.070068,1.158936,81.603996,328.674286,3.295898
0.132324,0.119385,0.975342,116.21093,367.858856,36.865234
0.276367,0.113525,1.003418,115.234367,370.483368,54.199215
0.362427,0.161743,0.899536,124.1455,390.075653,65.368652
0.416016,0.193481,0.711792,136.901855,414.489716,56.15234
0.484131,0.267212,0.348755,110.53466,389.526337,18.493652
0.620361,0.187134,0.21167,72.44873,328.063934,-26.916502
0.668335,0.045166,0.300049,67.138672,298.278809,-46.264645
0.834595,-0.00769,0.182861,57.067867,280.212402,-50.23193
0.857056,-0.046997,0.190674,71.960449,271.42334,-48.828121
0.779541,-0.127197,0.216797,67.565918,286.132812,-30.517576
0.762329,-0.062988,0.077637,66.162109,306.091309,-15.930175
0.73645,-0.026978,-0.341675,79.223633,294.555664,-17.456055
0.832031,-0.081909,-0.526245,67.504883,238.647446,-18.005371
0.799805,-0.093018,-0.36377,36.499023,228.698715,-16.052246
0.684204,-0.068359,-0.297974,8.850098,250.854477,-17.211914
0.605469,-0.011475,-0.365601,-7.080078,271.606445,-32.226562
0.499634,-0.042725,-0.502197,-29.296873,286.071777,-59.753414
0.400024,-0.246582,-0.648804,-26.245115,285.27832,-56.884762
0.373413,-0.262085,-0.825928,-12.329101,277.587891,-37.17041
0.354736,-0.200684,-0.960571,-14.465331,254.394516,-30.944822
0.282471,-0.198364,-0.905029,-40.466305,234.619125,-30.334471
0.262085,-0.187378,-0.87439,-48.522945,228.820786,-39.794922
0.208252,-0.263916,-1.064941,-34.179687,212.036118,-49.743649
0.140259,-0.287354,-1.234863,-29.479979,166.381821,-48.095699
0.141235,-0.293945,-1.226929,-28.442381,113.830559,-48.889156
0.126831,-0.310181,-1.177979,-26.611326,93.200676,-47.668453
0.100708,-0.24292,-1.169556,-12.695312,65.673828,-45.837399
0.077637,-0.300415,-1.128784,10.253905,46.56982,-58.105465
0.049438,-0.347412,-1.022583,10.0708,35.705566,-57.067867
0.031372,-0.329956,-1.046631,4.516602,36.071777,-44.860836
-0.001465,-0.366211,-1.153564,2.441406,33.874512,-37.658691
-0.019287,-0.369873,-1.120117,1.586914,17.150879,-28.442381
0.010376,-0.31189,-1.045288,3.784179,3.90625,-19.40918
0.061279,-0.266602,-1.003174,2.868652,-2.075195,-16.967773
0.078613,-0.224854,-1.006226,4.882812,-5.859375,-17.944336
0.047607,-0.290283,-1.022949,15.808105,-8.361816,-24.16992
0.023071,-0.330078,-1.011963,18.005371,-11.230468,-21.118162
0.044556,-0.340698,-0.981079,10.620116,-13.122558,-12.268065
0.088013,-0.22644,-0.953979,0.061035,-16.723633,0.366211
0.120239,-0.203979,-0.93103,10.437011,-17.333984,-8.789063
0.095459,-0.304199,-0.960083,10.986327,-10.803222,-13.427733
0.083008,-0.220825,-0.961792,5.798339,-9.765625,-7.751464
0.075562,-0.268921,-0.952881,8.666992,-11.474608,-14.038085
0.052002,-0.272949,-0.968018,4.760742,-11.96289,-10.925292
0.040894,-0.295776,-0.986694,3.723144,-15.197753,-5.859375
0.06604,-0.250732,-0.956787,3.601074,-19.287109,-1.159668
0.069702,-0.259521,-0.994019,3.417969,-18.493652,-1.525879
0.066406,-0.248901,-1.052246,13.061522,-24.04785,-1.342773
0.041748,-0.335449,-1.115723,16.418457,-40.832516,0.793457
0.027344,-0.359497,-1.277222,12.390136,-64.758301,17.272949
-0.011841,-0.37793,-1.37561,14.648437,-115.417473,35.400391
-0.043579,-0.429077,-1.528687,20.568846,-191.58934,57.006832
-0.038452,-0.362915,-1.36499,38.635254,-283.508301,84.289543
0.065308,-0.263916,-1.468872,60.05859,-350.891083,91.064445
0.134521,-0.198364,-1.50708,55.908199,-449.157684,91.735832
0.105347,0.139893,-1.280884,48.767086,-580.871582,79.406738
0.133301,0.186035,-0.977295,87.768547,-695.007263,17.333984
0.279541,0.1427,-0.328613,71.655273,-716.125427,-37.536621
0.369629,0.13855,0.306763,16.845703,-623.596191,-73.242187
0.355835,-0.057129,0.327881,16.479492,-521.118164,-95.947258
0.334106,-0.262695,0.090698,15.197753,-511.535614,-74.462891
0.274414,-0.183105,0.255859,3.356933,-530.212402,-56.701656
0.251099,-0.211548,0.528931,-34.667969,-512.084961,-49.926754
0.122314,-0.155884,0.615234,-79.711914,-476.68454,-34.790039
-0.17981,-0.279053,0.828491,-44.921871,-456.481903,-23.803709
0.009033,-0.19165,1.141602,-25.268553,-389.099091,1.037598
0.079956,0.018188,1.170654,-46.264645,-315.002441,-27.404783
-0.037842,-0.022949,1.316162,-51.818844,-254.150375,-57.128902
-0.186401,-0.093872,1.367188,-39.123535,-198.669418,-65.063477
-0.216797,-0.107666,1.353882,-26.367186,-158.447266,-61.218258
-0.225952,-0.106934,1.323975,-10.559081,-109.802238,-59.143063
-0.2677,-0.116577,1.237915,-7.202148,-75.012207,-55.847164
-0.318359,-0.143433,1.241699,-3.112793,-53.466793,-44.982906
-0.304443,-0.123047,1.143066,11.108397,-40.64941,-31.372068
-0.235229,-0.1073,1.090332,18.432617,-29.357908,-26.794432
-0.235596,-0.120728,1.010498,14.22119,-13.061522,-28.07617
-0.187378,-0.101563,0.889526,12.268065,-16.723633,-28.07617
-0.151245,-0.066406,0.902832,7.8125,-36.621094,-34.790039
-0.180908,-0.10022,0.96936,6.958007,-41.320797,-36.682129
-0.233765,-0.067017,0.993896,13.305663,-38.269043,-39.611816
-0.214233,-0.159546,1.007202,5.615234,-26.794432,-47.180172
-0.176758,-0.119629,1.056519,12.878417,-12.512206,-34.851074
-0.168701,-0.083984,1.098633,23.254393,2.563476,-29.96826
-0.204834,-0.140381,1.036011,19.714355,17.822266,-30.700682
-0.186646,-0.189819,0.963013,10.925292,20.26367,-20.38574
-0.147705,-0.136108,1.008057,6.469726,17.63916,-5.981445
-0.15918,-0.157959,1.017944,-2.075195,20.202635,-4.089355
-0.150391,-0.145142,1.017212,-0.061035,23.559568,2.13623
-0.139526,-0.126221,1.053101,6.225585,30.883787,4.02832
-0.140381,-0.131714,1.096924,9.033203,41.748043,0.915527
-0.150391,-0.178955,1.142822,15.380858,56.27441,2.868652
-0.160034,-0.18689,1.12854,26.18408,83.618156,14.953612
-0.130981,-0.159546,1.018066,28.686522,103.393547,25.268553
-0.044556,-0.143799,1.149902,21.362303,102.783195,25.390623
-0.033081,-0.190796,1.379639,15.86914,136.59668,18.737793
-0.080322,-0.267822,1.389526,26.489256,214.355453,28.930662
